"subjectID","run","Trial","condition","stimulus","Onset","Dur","RT","Response"
"CHIVES1001","1",1,"regulate","crave",8.0854,1.8663,1.779,3
"CHIVES1001","1",2,"look","neutral",20.0188,2.0916,2.086,3
"CHIVES1001","1",3,"look","crave",32.3354,1.5968,1.593,3
"CHIVES1001","1",4,"look","crave",44.2688,0.6552,0.651,3
"CHIVES1001","1",5,"look","neutral",56.2021,1.3377,1.334,2
"CHIVES1001","1",6,"look","no crave",68.7685,1.0116,1.008,1
"CHIVES1001","1",7,"look","crave",81.0854,1.3027,1.299,5
"CHIVES1001","1",8,"regulate","crave",93.1521,1.0438,1.04,3
"CHIVES1001","1",9,"look","no crave",105.2021,1.0021,0.998,1
"CHIVES1001","1",10,"look","no crave",117.2688,0.5995,0.596,3
"CHIVES1001","1",11,"regulate","crave",129.0685,0.4159,0.412,4
"CHIVES1001","1",12,"regulate","crave",141.0021,1.3221,1.318,3
"CHIVES1001","1",13,"look","crave",152.9353,0.8854,0.881,5
"CHIVES1001","1",14,"look","neutral",164.8687,0.2154,0.212,3
"CHIVES1001","1",15,"look","neutral",177.2021,1.2899,1.286,1
"CHIVES1001","1",16,"look","crave",189.002,0.4659,0.462,3
"CHIVES1001","1",17,"look","no crave",200.9354,0.9243,0.921,1
"CHIVES1001","1",18,"look","neutral",212.7353,0.709,0.705,5
"CHIVES1001","1",19,"regulate","crave",224.6687,0.7112,0.707,2
"CHIVES1001","1",20,"look","crave",236.6025,0.5059,0.502,2
"CHIVES1001","1",21,"look","no crave",248.5352,1.1332,1.13,1
"CHIVES1001","1",22,"look","neutral",261.1019,0.5425,0.539,3
"CHIVES1001","1",23,"look","no crave",273.0359,1.2401,1.236,1
"CHIVES1001","1",24,"look","crave",284.8358,0.6326,0.629,5
"CHIVES1001","1",25,"regulate","crave",297.1519,1.2922,1.288,4
"CHIVES1001","1",26,"look","neutral",310.2194,0.5692,0.565,3
"CHIVES1001","1",27,"look","crave",322.1521,0.6206,0.617,3
"CHIVES1001","1",28,"look","no crave",333.9525,1.036,1.032,1
"CHIVES1001","1",29,"look","neutral",345.8851,0.815,0.811,1
"CHIVES1001","1",30,"regulate","crave",357.8194,1.6724,1.669,2
"CHIVES1001","1",31,"look","no crave",369.8684,1.3516,1.348,1
"CHIVES1001","1",32,"look","no crave",381.8025,0.7294,0.726,3
"CHIVES1001","1",33,"regulate","crave",393.8519,0.4407,0.437,3
"CHIVES1001","1",34,"regulate","crave",405.9026,0.5815,0.578,4
"CHIVES1001","1",35,"look","crave",417.8353,0.8573,0.853,5
"CHIVES1001","1",36,"look","crave",429.636,0.5438,0.54,2
"CHIVES1001","1",37,"look","neutral",441.5687,0.9791,0.975,1
"CHIVES1001","1",38,"look","neutral",453.5025,0.8374,0.834,1
"CHIVES1001","1",39,"look","no crave",465.4352,0.7687,0.765,1
"CHIVES1001","1",40,"regulate","crave",477.3693,0.4272,0.423,2
"CHIVES1001","2",1,"regulate","crave",7.8452,1.6039,1.515,5
"CHIVES1001","2",2,"look","neutral",19.7785,2.1489,2.142,2
"CHIVES1001","2",3,"look","no crave",31.7119,1.1269,1.121,5
"CHIVES1001","2",4,"look","crave",44.7786,0.8409,0.837,5
"CHIVES1001","2",5,"look","crave",56.5786,1.0889,1.085,5
"CHIVES1001","2",6,"look","neutral",68.8951,0.9003,0.897,1
"CHIVES1001","2",7,"look","neutral",80.9453,0.7707,0.767,5
"CHIVES1001","2",8,"regulate","crave",92.8786,2.6129,2.609,5
"CHIVES1001","2",9,"regulate","crave",104.6786,1.189,1.185,5
"CHIVES1001","2",10,"look","no crave",116.6119,0.9276,0.924,1
"CHIVES1001","2",11,"look","crave",128.5452,0.6666,0.663,5
"CHIVES1001","2",12,"look","no crave",140.3453,1.3062,1.303,1
"CHIVES1001","2",13,"look","neutral",152.3953,1.0561,1.053,1
"CHIVES1001","2",14,"look","no crave",164.3286,0.9229,0.919,1
"CHIVES1001","2",15,"look","crave",176.262,0.854,0.85,5
"CHIVES1001","2",16,"regulate","crave",188.3286,1.1309,1.127,5
"CHIVES1001","2",17,"look","no crave",200.262,0.5819,0.578,1
"CHIVES1001","2",18,"look","no crave",212.1953,0.9205,0.917,1
"CHIVES1001","2",19,"regulate","crave",224.2452,0.9906,0.987,5
"CHIVES1001","2",20,"look","crave",236.1787,0.8247,0.821,5
"CHIVES1001","2",21,"look","neutral",248.4952,1.0681,1.065,1
"CHIVES1001","2",22,"look","neutral",261.562,1.0177,1.014,4
"CHIVES1001","2",23,"look","crave",273.6118,1.0256,1.021,5
"CHIVES1001","2",24,"look","crave",285.5456,0.483,0.479,5
"CHIVES1001","2",25,"look","neutral",297.5951,1.385,1.382,2
"CHIVES1001","2",26,"look","neutral",309.3957,1.5125,1.509,4
"CHIVES1001","2",27,"regulate","crave",321.7117,0.8446,0.841,5
"CHIVES1001","2",28,"regulate","crave",334.0289,0.3591,0.355,5
"CHIVES1001","2",29,"look","no crave",346.3453,1.0826,1.079,3
"CHIVES1001","2",30,"look","no crave",358.279,1.7326,1.729,1
"CHIVES1001","2",31,"regulate","crave",370.3286,1.1397,1.136,5
"CHIVES1001","2",32,"look","crave",382.1292,0.5945,0.591,5
"CHIVES1001","2",33,"look","no crave",394.0619,0.7821,0.779,1
"CHIVES1001","2",34,"look","neutral",405.9956,0.8966,0.893,1
"CHIVES1001","2",35,"look","crave",417.7951,0.4566,0.453,5
"CHIVES1001","2",36,"regulate","crave",429.5957,0.8642,0.86,5
"CHIVES1001","2",37,"look","crave",441.5285,0.6194,0.616,5
"CHIVES1001","2",38,"look","no crave",453.3291,0.491,0.488,1
"CHIVES1001","2",39,"look","neutral",465.3952,1.2086,1.205,2
"CHIVES1001","2",40,"regulate","crave",477.3289,0.9305,0.927,5
"CHIVES1002","1",1,"regulate","crave",8.0932,0.6433,0.555,1
"CHIVES1002","1",2,"look","neutral",20.0283,0.4337,0.428,5
"CHIVES1002","1",3,"look","crave",32.3432,0.6535,0.649,5
"CHIVES1002","1",4,"look","crave",44.2766,0.7674,0.764,5
"CHIVES1002","1",5,"look","neutral",56.2098,0.5625,0.559,4
"CHIVES1002","1",6,"look","no crave",68.7792,0.8408,0.837,3
"CHIVES1002","1",7,"look","crave",81.0932,0.7424,0.739,4
"CHIVES1002","1",8,"regulate","crave",93.1625,0.6969,0.693,1
"CHIVES1002","1",9,"look","no crave",105.2266,0.8977,0.894,4
"CHIVES1002","1",10,"look","no crave",117.2932,0.495,0.491,4
"CHIVES1002","1",11,"regulate","crave",129.0932,0.5266,0.523,1
"CHIVES1002","1",12,"regulate","crave",141.0264,1.4339,1.43,1
"CHIVES1002","1",13,"look","crave",152.9597,0.5799,0.576,4
"CHIVES1002","1",14,"look","neutral",164.8932,0.5829,0.579,4
"CHIVES1002","1",15,"look","neutral",177.2099,0.4983,0.494,5
"CHIVES1002","1",16,"look","crave",189.0099,0.786,0.782,3
"CHIVES1002","1",17,"look","no crave",200.9432,0.6932,0.689,4
"CHIVES1002","1",18,"look","neutral",212.7431,0.4208,0.417,5
"CHIVES1002","1",19,"regulate","crave",224.6766,1.6628,1.659,1
"CHIVES1002","1",20,"look","crave",236.6099,0.4098,0.406,5
"CHIVES1002","1",21,"look","no crave",248.5432,0.6124,0.609,2
"CHIVES1002","1",22,"look","neutral",261.1108,0.629,0.625,5
"CHIVES1002","1",23,"look","no crave",273.0431,0.6406,0.637,1
"CHIVES1002","1",24,"look","crave",284.8442,0.6,0.596,5
"CHIVES1002","1",25,"regulate","crave",297.1598,0.6466,0.641,1
"CHIVES1002","1",26,"look","neutral",310.2276,0.5847,0.581,5
"CHIVES1002","1",27,"look","crave",322.1608,0.7713,0.768,3
"CHIVES1002","1",28,"look","no crave",333.9776,0.7625,0.759,2
"CHIVES1002","1",29,"look","neutral",345.9109,0.6853,0.682,4
"CHIVES1002","1",30,"regulate","crave",357.8442,0.5039,0.5,1
"CHIVES1002","1",31,"look","no crave",369.9109,0.5891,0.585,2
"CHIVES1002","1",32,"look","no crave",381.8441,0.8161,0.813,2
"CHIVES1002","1",33,"regulate","crave",393.9109,1.0135,1.01,1
"CHIVES1002","1",34,"regulate","crave",405.9773,0.7383,0.735,1
"CHIVES1002","1",35,"look","crave",417.9108,0.6692,0.665,5
"CHIVES1002","1",36,"look","crave",429.7109,0.7572,0.753,5
"CHIVES1002","1",37,"look","neutral",441.6442,0.6162,0.612,5
"CHIVES1002","1",38,"look","neutral",453.5773,1.0906,1.087,5
"CHIVES1002","1",39,"look","no crave",465.5109,0.4931,0.489,2
"CHIVES1002","1",40,"regulate","crave",477.4443,0.4717,0.468,1
"CHIVES1002","2",1,"regulate","crave",7.8418,0.6301,0.55,1
"CHIVES1002","2",2,"look","neutral",19.7752,0.6628,0.657,4
"CHIVES1002","2",3,"look","no crave",31.7085,0.664,0.66,2
"CHIVES1002","2",4,"look","crave",44.7752,0.4684,0.465,5
"CHIVES1002","2",5,"look","crave",56.5752,0.5644,0.561,5
"CHIVES1002","2",6,"look","neutral",68.8919,0.4165,0.413,5
"CHIVES1002","2",7,"look","neutral",80.9586,0.7418,0.738,4
"CHIVES1002","2",8,"regulate","crave",92.8919,0.5995,0.596,2
"CHIVES1002","2",9,"regulate","crave",104.692,0.568,0.565,2
"CHIVES1002","2",10,"look","no crave",116.6253,0.5064,0.503,3
"CHIVES1002","2",11,"look","crave",128.5586,0.5259,0.522,5
"CHIVES1002","2",12,"look","no crave",140.3586,0.6288,0.625,2
"CHIVES1002","2",13,"look","neutral",152.4086,0.7795,0.776,4
"CHIVES1002","2",14,"look","no crave",164.3419,0.8455,0.842,2
"CHIVES1002","2",15,"look","crave",176.2753,0.5603,0.557,5
"CHIVES1002","2",16,"regulate","crave",188.3419,0.8374,0.834,2
"CHIVES1002","2",17,"look","no crave",200.2753,0.4568,0.453,4
"CHIVES1002","2",18,"look","no crave",212.2085,0.9229,0.919,3
"CHIVES1002","2",19,"regulate","crave",224.2586,0.569,0.565,2
"CHIVES1002","2",20,"look","crave",236.1919,0.708,0.704,5
"CHIVES1002","2",21,"look","neutral",248.5086,0.6233,0.62,4
"CHIVES1002","2",22,"look","neutral",261.5752,0.6849,0.681,4
"CHIVES1002","2",23,"look","crave",273.6419,0.7859,0.782,5
"CHIVES1002","2",24,"look","crave",285.5752,0.4374,0.434,5
"CHIVES1002","2",25,"look","neutral",297.6252,0.6347,0.631,4
"CHIVES1002","2",26,"look","neutral",309.4252,0.5311,0.527,4
"CHIVES1002","2",27,"regulate","crave",321.7417,1.9897,1.986,2
"CHIVES1002","2",28,"regulate","crave",334.0586,0.682,0.678,1
"CHIVES1002","2",29,"look","no crave",346.3753,0.7081,0.705,2
"CHIVES1002","2",30,"look","no crave",358.3086,0.8389,0.835,1
"CHIVES1002","2",31,"regulate","crave",370.3586,0.4934,0.49,1
"CHIVES1002","2",32,"look","crave",382.1586,0.5892,0.585,5
"CHIVES1002","2",33,"look","no crave",394.092,0.5517,0.548,1
"CHIVES1002","2",34,"look","neutral",406.0251,0.5866,0.583,3
"CHIVES1002","2",35,"look","crave",417.8251,0.5465,0.543,5
"CHIVES1002","2",36,"regulate","crave",429.6252,0.5547,0.551,2
"CHIVES1002","2",37,"look","crave",441.5586,0.5578,0.554,4
"CHIVES1002","2",38,"look","no crave",453.3587,1.0696,1.066,1
"CHIVES1002","2",39,"look","neutral",465.4086,0.7955,0.792,4
"CHIVES1002","2",40,"regulate","crave",477.3418,0.6223,0.619,2
"CHIVES1003","1",1,"regulate","crave",8.093,3.0423,2.955,3
"CHIVES1003","1",2,"look","neutral",20.0275,2.2665,2.261,3
"CHIVES1003","1",3,"look","crave",32.3432,1.6779,1.673,5
"CHIVES1003","1",4,"look","crave",44.2766,0.9193,0.916,5
"CHIVES1003","1",5,"look","neutral",56.2099,0.8259,0.822,2
"CHIVES1003","1",6,"look","no crave",68.7765,0.8917,0.888,2
"CHIVES1003","1",7,"look","crave",81.0931,1.0793,1.075,5
"CHIVES1003","1",8,"regulate","crave",93.193,0.6751,0.671,5
"CHIVES1003","1",9,"look","no crave",105.2598,0.8403,0.837,2
"CHIVES1003","1",10,"look","no crave",117.3263,0.6701,0.666,2
"CHIVES1003","1",11,"regulate","crave",129.1265,1.3175,1.314,3
"CHIVES1003","1",12,"regulate","crave",141.0597,0.6727,0.669,5
"CHIVES1003","1",13,"look","crave",152.9933,0.8823,0.879,3
"CHIVES1003","1",14,"look","neutral",164.9266,0.6536,0.65,3
"CHIVES1003","1",15,"look","neutral",177.2431,0.7452,0.741,3
"CHIVES1003","1",16,"look","crave",189.0438,0.7527,0.749,5
"CHIVES1003","1",17,"look","no crave",200.9766,0.6836,0.68,2
"CHIVES1003","1",18,"look","neutral",212.7775,1.1619,1.158,1
"CHIVES1003","1",19,"regulate","crave",224.7098,1.1983,1.195,3
"CHIVES1003","1",20,"look","crave",236.6442,0.7282,0.724,3
"CHIVES1003","1",21,"look","no crave",248.5765,0.6671,0.663,2
"CHIVES1003","1",22,"look","neutral",261.1439,0.5959,0.592,3
"CHIVES1003","1",23,"look","no crave",273.0929,0.6234,0.62,2
"CHIVES1003","1",24,"look","crave",284.8941,0.6381,0.634,5
"CHIVES1003","1",25,"regulate","crave",297.2097,0.9465,0.943,5
"CHIVES1003","1",26,"look","neutral",310.2775,1.406,1.402,1
"CHIVES1003","1",27,"look","crave",322.2099,0.6904,0.687,3
"CHIVES1003","1",28,"look","no crave",334.0104,0.7611,0.757,2
"CHIVES1003","1",29,"look","neutral",345.943,0.9089,0.905,3
"CHIVES1003","1",30,"regulate","crave",357.8771,0.7751,0.771,3
"CHIVES1003","1",31,"look","no crave",369.9264,1.3338,1.33,1
"CHIVES1003","1",32,"look","no crave",381.8605,0.8237,0.82,2
"CHIVES1003","1",33,"regulate","crave",393.9264,1.126,1.122,3
"CHIVES1003","1",34,"regulate","crave",405.994,0.9462,0.942,3
"CHIVES1003","1",35,"look","crave",417.9264,1.9736,1.97,2
"CHIVES1003","1",36,"look","crave",429.7274,0.7006,0.697,4
"CHIVES1003","1",37,"look","neutral",441.6606,0.6632,0.66,1
"CHIVES1003","1",38,"look","neutral",453.594,0.6742,0.67,4
"CHIVES1003","1",39,"look","no crave",465.5264,0.694,0.69,2
"CHIVES1003","1",40,"regulate","crave",477.4607,0.8635,0.86,4
"CHIVES1003","2",1,"regulate","crave",7.8393,0.7105,0.625,4
"CHIVES1003","2",2,"look","neutral",19.7723,0.6892,0.684,2
"CHIVES1003","2",3,"look","no crave",31.706,0.5949,0.591,2
"CHIVES1003","2",4,"look","crave",44.7726,0.7835,0.78,4
"CHIVES1003","2",5,"look","crave",56.5726,1.055,1.052,5
"CHIVES1003","2",6,"look","neutral",68.8893,0.9226,0.919,5
"CHIVES1003","2",7,"look","neutral",80.9558,0.7274,0.724,2
"CHIVES1003","2",8,"regulate","crave",92.8893,1.0107,1.007,3
"CHIVES1003","2",9,"regulate","crave",104.6893,2.0262,2.023,2
"CHIVES1003","2",10,"look","no crave",116.6226,0.7013,0.698,2
"CHIVES1003","2",11,"look","crave",128.556,0.8719,0.868,5
"CHIVES1003","2",12,"look","no crave",140.3557,0.6404,0.637,3
"CHIVES1003","2",13,"look","neutral",152.4059,0.6777,0.674,5
"CHIVES1003","2",14,"look","no crave",164.3393,0.8884,0.885,2
"CHIVES1003","2",15,"look","crave",176.2726,0.6756,0.672,4
"CHIVES1003","2",16,"regulate","crave",188.3393,0.7123,0.709,4
"CHIVES1003","2",17,"look","no crave",200.2725,0.683,0.68,1
"CHIVES1003","2",18,"look","no crave",212.2058,0.8856,0.882,3
"CHIVES1003","2",19,"regulate","crave",224.2726,0.9148,0.911,3
"CHIVES1003","2",20,"look","crave",236.2059,0.8216,0.818,4
"CHIVES1003","2",21,"look","neutral",248.5226,0.7454,0.742,3
"CHIVES1003","2",22,"look","neutral",261.5893,0.7346,0.731,3
"CHIVES1003","2",23,"look","crave",273.656,0.7399,0.736,5
"CHIVES1003","2",24,"look","crave",285.589,1.2223,1.219,3
"CHIVES1003","2",25,"look","neutral",297.656,0.676,0.673,3
"CHIVES1003","2",26,"look","neutral",309.4561,0.6837,0.68,1
"CHIVES1003","2",27,"regulate","crave",321.7727,1.2391,1.236,4
"CHIVES1003","2",28,"regulate","crave",334.0893,0.7228,0.719,5
"CHIVES1003","2",29,"look","no crave",346.4059,0.782,0.779,2
"CHIVES1003","2",30,"look","no crave",358.3394,0.864,0.861,1
"CHIVES1003","2",31,"regulate","crave",370.406,0.8538,0.85,5
"CHIVES1003","2",32,"look","crave",382.2061,0.9181,0.915,5
"CHIVES1003","2",33,"look","no crave",394.1393,0.7763,0.773,1
"CHIVES1003","2",34,"look","neutral",406.1059,0.6493,0.646,2
"CHIVES1003","2",35,"look","crave",417.9061,0.6742,0.671,5
"CHIVES1003","2",36,"regulate","crave",429.706,0.8496,0.846,4
"CHIVES1003","2",37,"look","crave",441.6394,0.6764,0.673,4
"CHIVES1003","2",38,"look","no crave",453.4394,0.6841,0.681,1
"CHIVES1003","2",39,"look","neutral",465.5058,0.8339,0.83,2
"CHIVES1003","2",40,"regulate","crave",477.4394,0.9646,0.961,3
"CHIVES1004","1",1,"regulate","crave",8.1208,2.56,2.48,4
"CHIVES1004","1",2,"look","neutral",20.0981,1.5245,1.519,3
"CHIVES1004","1",3,"look","crave",32.4178,2.4514,2.447,5
"CHIVES1004","1",4,"look","crave",44.4437,2.2642,2.26,4
"CHIVES1004","1",5,"look","neutral",56.3931,1.6508,1.647,1
"CHIVES1004","1",6,"look","no crave",69.0786,2.2053,2.202,2
"CHIVES1004","1",7,"look","crave",81.3773,1.5543,1.551,1
"CHIVES1004","1",8,"regulate","crave",93.5633,4.0007,0,NA
"CHIVES1004","1",9,"look","no crave",105.6647,3.8755,3.872,4
"CHIVES1004","1",10,"look","no crave",117.7285,3.1312,3.127,3
"CHIVES1004","1",11,"regulate","crave",129.5623,1.9613,1.958,1
"CHIVES1004","1",12,"regulate","crave",141.5107,1.5015,1.498,1
"CHIVES1004","1",13,"look","crave",153.5464,2.4177,2.414,1
"CHIVES1004","1",14,"look","neutral",165.4911,1.0971,1.093,5
"CHIVES1004","1",15,"look","neutral",177.9313,1.0645,1.061,5
"CHIVES1004","1",16,"look","crave",189.7821,1.0142,1.01,5
"CHIVES1004","1",17,"look","no crave",201.7438,2.0519,2.048,1
"CHIVES1004","1",18,"look","neutral",213.6311,1.117,1.113,5
"CHIVES1004","1",19,"regulate","crave",225.5787,1.657,1.653,1
"CHIVES1004","1",20,"look","crave",237.5606,2.5477,2.544,5
"CHIVES1004","1",21,"look","no crave",249.5624,1.3213,1.318,1
"CHIVES1004","1",22,"look","neutral",262.1427,1.0857,1.082,5
"CHIVES1004","1",23,"look","no crave",274.1968,2.063,2.059,1
"CHIVES1004","1",24,"look","crave",286.0289,2.3027,2.299,1
"CHIVES1004","1",25,"regulate","crave",298.4915,1.2004,1.197,3
"CHIVES1004","1",26,"look","neutral",311.5948,1.0414,1.038,5
"CHIVES1004","1",27,"look","crave",323.5772,1.2589,1.255,4
"CHIVES1004","1",28,"look","no crave",335.4303,1.3255,1.322,1
"CHIVES1004","1",29,"look","neutral",347.3942,2.2979,2.294,1
"CHIVES1004","1",30,"regulate","crave",359.4475,2.4287,2.425,3
"CHIVES1004","1",31,"look","no crave",371.5474,1.3287,1.325,1
"CHIVES1004","1",32,"look","no crave",383.528,1.7719,1.768,1
"CHIVES1004","1",33,"regulate","crave",395.6291,1.9825,1.979,1
"CHIVES1004","1",34,"regulate","crave",407.6946,1.2776,1.274,1
"CHIVES1004","1",35,"look","crave",419.7641,2.624,2.62,5
"CHIVES1004","1",36,"look","crave",431.5944,1.5138,1.51,5
"CHIVES1004","1",37,"look","neutral",443.616,0.9084,0.904,5
"CHIVES1004","1",38,"look","neutral",455.6617,1.9758,1.971,4
"CHIVES1004","1",39,"look","no crave",467.577,0.8832,0.88,1
"CHIVES1004","1",40,"regulate","crave",479.645,0.7914,0.787,5
"CHIVES1004","2",1,"regulate","crave",7.8847,1.6893,1.612,4
"CHIVES1004","2",2,"look","neutral",19.8188,0.9708,0.965,3
"CHIVES1004","2",3,"look","no crave",31.7682,1.1162,1.112,1
"CHIVES1004","2",4,"look","crave",44.9186,1.6853,1.682,4
"CHIVES1004","2",5,"look","crave",56.7661,1.9897,1.986,3
"CHIVES1004","2",6,"look","neutral",69.2047,1.0872,1.084,5
"CHIVES1004","2",7,"look","neutral",81.3203,1.1,1.096,5
"CHIVES1004","2",8,"regulate","crave",93.3198,1.7797,1.776,3
"CHIVES1004","2",9,"regulate","crave",105.205,0.8389,0.835,1
"CHIVES1004","2",10,"look","no crave",117.1688,1.3306,1.327,1
"CHIVES1004","2",11,"look","crave",129.1701,1.0581,1.054,4
"CHIVES1004","2",12,"look","no crave",141.0021,1.2739,1.27,1
"CHIVES1004","2",13,"look","neutral",153.1021,1.2554,1.25,5
"CHIVES1004","2",14,"look","no crave",165.0689,1.495,1.491,1
"CHIVES1004","2",15,"look","crave",177.0025,1.0183,1.014,3
"CHIVES1004","2",16,"regulate","crave",189.1714,2.1686,2.165,3
"CHIVES1004","2",17,"look","no crave",201.1535,2.714,2.71,4
"CHIVES1004","2",18,"look","no crave",213.1003,1.4476,1.444,1
"CHIVES1004","2",19,"regulate","crave",225.2065,0.7574,0.754,1
"CHIVES1004","2",20,"look","crave",237.153,0.7945,0.791,1
"CHIVES1004","2",21,"look","neutral",249.5197,0.9079,0.904,3
"CHIVES1004","2",22,"look","neutral",262.5842,0.8516,0.848,5
"CHIVES1004","2",23,"look","crave",274.738,0.7458,0.742,1
"CHIVES1004","2",24,"look","crave",286.7702,0.9936,0.99,5
"CHIVES1004","2",25,"look","neutral",298.8709,1.8053,1.802,5
"CHIVES1004","2",26,"look","neutral",311.1387,4.0006,0,NA
"CHIVES1004","2",27,"regulate","crave",323.5378,2.0353,2.03,2
"CHIVES1004","2",28,"regulate","crave",335.9215,0.7147,0.711,1
"CHIVES1004","2",29,"look","no crave",348.2897,0.8265,0.823,2
"CHIVES1004","2",30,"look","no crave",360.2548,0.7327,0.729,2
"CHIVES1004","2",31,"regulate","crave",372.3334,0.9985,0.995,1
"CHIVES1004","2",32,"look","crave",384.2208,1.5746,1.571,1
"CHIVES1004","2",33,"look","no crave",396.2528,0.8067,0.803,1
"CHIVES1004","2",34,"look","neutral",408.1833,1.9967,1.993,5
"CHIVES1004","2",35,"look","crave",420.1029,1.437,1.434,2
"CHIVES1004","2",36,"regulate","crave",431.9028,0.8531,0.85,1
"CHIVES1004","2",37,"look","crave",443.903,0.8772,0.874,1
"CHIVES1004","2",38,"look","no crave",455.7524,1.1154,1.112,1
"CHIVES1004","2",39,"look","neutral",467.8354,0.8169,0.813,5
"CHIVES1004","2",40,"regulate","crave",479.8711,0.7964,0.793,1
"CHIVES1005","1",1,"regulate","crave",8.1328,2.9583,2.94,5
"CHIVES1005","1",2,"look","neutral",20.1198,3.6217,3.617,2
"CHIVES1005","1",3,"look","crave",32.4278,2.8886,2.885,5
"CHIVES1005","1",4,"look","crave",44.5338,3.1582,3.155,4
"CHIVES1005","1",5,"look","neutral",56.4458,1.1099,1.106,1
"CHIVES1005","1",6,"look","no crave",69.8117,1.416,1.412,2
"CHIVES1005","1",7,"look","crave",82.1296,4.0006,0,NA
"CHIVES1005","1",8,"regulate","crave",94.2485,4.0003,0,NA
"CHIVES1005","1",9,"look","no crave",106.35,3.5417,3.538,1
"CHIVES1005","1",10,"look","no crave",118.4129,1.6466,1.643,1
"CHIVES1005","1",11,"regulate","crave",130.3479,2.2563,2.253,3
"CHIVES1005","1",12,"regulate","crave",142.2983,2.4979,2.494,3
"CHIVES1005","1",13,"look","crave",154.3207,2.4593,2.456,3
"CHIVES1005","1",14,"look","neutral",166.3501,3.2858,3.282,4
"CHIVES1005","1",15,"look","neutral",178.6623,3.1256,3.122,3
"CHIVES1005","1",16,"look","crave",190.5147,1.4973,1.494,3
"CHIVES1005","1",17,"look","no crave",202.4615,2.3508,2.347,1
"CHIVES1005","1",18,"look","neutral",214.2963,4.0004,0,NA
"CHIVES1005","1",19,"regulate","crave",226.263,2.1412,2.137,5
"CHIVES1005","1",20,"look","crave",238.1944,1.4659,1.462,4
"CHIVES1005","1",21,"look","no crave",250.1765,1.908,1.904,1
"CHIVES1005","1",22,"look","neutral",262.779,1.2649,1.261,1
"CHIVES1005","1",23,"look","no crave",274.7317,3.2164,3.213,1
"CHIVES1005","1",24,"look","crave",286.5985,2.2377,2.234,4
"CHIVES1005","1",25,"regulate","crave",299.0109,1.6894,1.686,3
"CHIVES1005","1",26,"look","neutral",312.0945,0.9655,0.962,3
"CHIVES1005","1",27,"look","crave",324.0163,1.2998,1.296,4
"CHIVES1005","1",28,"look","no crave",335.901,1.0149,1.011,1
"CHIVES1005","1",29,"look","neutral",347.8655,1.0264,1.023,5
"CHIVES1005","1",30,"regulate","crave",359.8694,3.5186,3.515,4
"CHIVES1005","1",31,"look","no crave",371.9663,1.5658,1.562,1
"CHIVES1005","1",32,"look","no crave",383.9165,1.7362,1.732,2
"CHIVES1005","1",33,"regulate","crave",396.1134,2.4588,2.455,4
"CHIVES1005","1",34,"regulate","crave",408.1968,2.1519,2.148,4
"CHIVES1005","1",35,"look","crave",420.1947,1.7051,1.701,3
"CHIVES1005","1",36,"look","crave",432.0473,2.3646,2.361,3
"CHIVES1005","1",37,"look","neutral",443.9621,2.1628,2.159,3
"CHIVES1005","1",38,"look","neutral",455.9476,1.4722,1.468,4
"CHIVES1005","1",39,"look","no crave",467.8782,1.9262,1.922,1
"CHIVES1005","1",40,"regulate","crave",479.8287,2.7523,2.748,4
"CHIVES1005","2",1,"regulate","crave",7.8995,2.8948,2.828,3
"CHIVES1005","2",2,"look","neutral",19.8327,3.1412,3.135,3
"CHIVES1005","2",3,"look","no crave",31.8697,2.1509,2.146,1
"CHIVES1005","2",4,"look","crave",44.9995,3.1324,3.129,4
"CHIVES1005","2",5,"look","crave",56.8284,3.6876,3.684,3
"CHIVES1005","2",6,"look","neutral",69.1636,1.6721,1.668,5
"CHIVES1005","2",7,"look","neutral",81.2324,1.3954,1.392,4
"CHIVES1005","2",8,"regulate","crave",93.1972,2.247,2.244,3
"CHIVES1005","2",9,"regulate","crave",105.0805,2.2033,2.2,3
"CHIVES1005","2",10,"look","no crave",117.0653,1.7229,1.719,1
"CHIVES1005","2",11,"look","crave",129.0637,2.1325,2.129,3
"CHIVES1005","2",12,"look","no crave",140.8783,1.8532,1.85,1
"CHIVES1005","2",13,"look","neutral",153.0206,1.2951,1.291,5
"CHIVES1005","2",14,"look","no crave",164.9294,2.0182,2.015,1
"CHIVES1005","2",15,"look","crave",176.9282,1.4516,1.448,3
"CHIVES1005","2",16,"regulate","crave",189.037,2.2473,2.244,4
"CHIVES1005","2",17,"look","no crave",201.0679,1.8878,1.884,2
"CHIVES1005","2",18,"look","no crave",213.1193,1.0282,1.025,1
"CHIVES1005","2",19,"regulate","crave",225.2184,1.3531,1.35,3
"CHIVES1005","2",20,"look","crave",237.2304,1.0691,1.065,4
"CHIVES1005","2",21,"look","neutral",249.5838,0.7243,0.721,3
"CHIVES1005","2",22,"look","neutral",262.712,1.1795,1.176,1
"CHIVES1005","2",23,"look","crave",274.8297,1.3422,1.339,4
"CHIVES1005","2",24,"look","crave",286.8277,1.1927,1.189,4
"CHIVES1005","2",25,"look","neutral",298.918,1.3901,1.387,3
"CHIVES1005","2",26,"look","neutral",310.7643,1.0316,1.028,4
"CHIVES1005","2",27,"regulate","crave",323.1152,2.7693,2.765,3
"CHIVES1005","2",28,"regulate","crave",335.4466,1.8692,1.865,2
"CHIVES1005","2",29,"look","no crave",347.8293,0.9822,0.979,1
"CHIVES1005","2",30,"look","no crave",359.8022,2.0658,2.062,2
"CHIVES1005","2",31,"regulate","crave",371.9171,1.2306,1.227,3
"CHIVES1005","2",32,"look","crave",383.7677,1.3237,1.32,3
"CHIVES1005","2",33,"look","no crave",395.7328,1.0234,1.02,1
"CHIVES1005","2",34,"look","neutral",407.733,1.7112,1.707,3
"CHIVES1005","2",35,"look","crave",419.6176,2.2421,2.239,2
"CHIVES1005","2",36,"regulate","crave",431.4192,3.0166,3.013,3
"CHIVES1005","2",37,"look","crave",443.415,2.1247,2.121,3
"CHIVES1005","2",38,"look","no crave",455.2325,1.3719,1.368,1
"CHIVES1005","2",39,"look","neutral",467.3346,1.5092,1.506,4
"CHIVES1005","2",40,"regulate","crave",479.317,1.6467,1.643,3
"CHIVES1006","1",1,"regulate","crave",8.1528,0.9636,0.879,2
"CHIVES1006","1",2,"look","neutral",20.0797,0.5984,0.593,3
"CHIVES1006","1",3,"look","crave",32.4107,0.77,0.765,4
"CHIVES1006","1",4,"look","crave",44.455,0.8126,0.809,4
"CHIVES1006","1",5,"look","neutral",56.4021,1.0661,1.062,4
"CHIVES1006","1",6,"look","no crave",69.0377,0.5901,0.586,2
"CHIVES1006","1",7,"look","crave",81.3336,0.7667,0.763,3
"CHIVES1006","1",8,"regulate","crave",93.4857,1.27,1.266,2
"CHIVES1006","1",9,"look","no crave",105.587,1.0167,1.013,2
"CHIVES1006","1",10,"look","no crave",117.6681,1.0562,1.053,2
"CHIVES1006","1",11,"regulate","crave",129.5363,0.6438,0.64,4
"CHIVES1006","1",12,"regulate","crave",141.4829,1.0173,1.014,2
"CHIVES1006","1",13,"look","crave",153.5047,0.8351,0.831,3
"CHIVES1006","1",14,"look","neutral",165.5073,0.8084,0.805,4
"CHIVES1006","1",15,"look","neutral",177.8889,0.7226,0.719,2
"CHIVES1006","1",16,"look","crave",189.7187,1.0612,1.058,3
"CHIVES1006","1",17,"look","no crave",201.6519,0.8075,0.804,1
"CHIVES1006","1",18,"look","neutral",213.5221,0.8816,0.878,5
"CHIVES1006","1",19,"regulate","crave",225.5217,0.8266,0.823,2
"CHIVES1006","1",20,"look","crave",237.5541,1.1218,1.118,3
"CHIVES1006","1",21,"look","no crave",249.6226,0.5654,0.562,1
"CHIVES1006","1",22,"look","neutral",262.1705,1.1618,1.158,3
"CHIVES1006","1",23,"look","no crave",274.2371,0.7511,0.748,2
"CHIVES1006","1",24,"look","crave",286.0719,0.7082,0.704,3
"CHIVES1006","1",25,"regulate","crave",298.4556,1.5807,1.577,3
"CHIVES1006","1",26,"look","neutral",311.5883,0.744,0.74,5
"CHIVES1006","1",27,"look","crave",323.5385,0.9937,0.99,3
"CHIVES1006","1",28,"look","no crave",335.4035,0.7924,0.789,2
"CHIVES1006","1",29,"look","neutral",347.3333,0.6872,0.683,4
"CHIVES1006","1",30,"regulate","crave",359.3726,0.8791,0.875,3
"CHIVES1006","1",31,"look","no crave",371.4709,0.6294,0.626,1
"CHIVES1006","1",32,"look","no crave",383.4718,0.8117,0.808,1
"CHIVES1006","1",33,"regulate","crave",395.6224,0.9812,0.978,2
"CHIVES1006","1",34,"regulate","crave",407.7048,0.5876,0.584,3
"CHIVES1006","1",35,"look","crave",419.7532,0.8112,0.807,4
"CHIVES1006","1",36,"look","crave",431.574,0.6856,0.682,4
"CHIVES1006","1",37,"look","neutral",443.5059,0.6904,0.687,2
"CHIVES1006","1",38,"look","neutral",455.5229,0.8646,0.861,1
"CHIVES1006","1",39,"look","no crave",467.519,1.2687,1.265,1
"CHIVES1006","1",40,"regulate","crave",479.5577,0.5103,0.507,3
"CHIVES1006","2",1,"regulate","crave",7.8928,4.0006,0,NA
"CHIVES1006","2",2,"look","neutral",19.964,3.1146,3.028,1
"CHIVES1006","2",3,"look","no crave",31.8944,2.5033,2.498,2
"CHIVES1006","2",4,"look","crave",45.0444,2.664,2.66,3
"CHIVES1006","2",5,"look","crave",56.8968,1.8834,1.88,4
"CHIVES1006","2",6,"look","neutral",69.2092,1.8669,1.863,2
"CHIVES1006","2",7,"look","neutral",81.3116,1.3403,1.337,3
"CHIVES1006","2",8,"regulate","crave",93.2407,1.8432,1.84,2
"CHIVES1006","2",9,"regulate","crave",105.1308,1.4811,1.477,3
"CHIVES1006","2",10,"look","no crave",117.096,1.0597,1.056,3
"CHIVES1006","2",11,"look","crave",129.0321,1.1961,1.193,4
"CHIVES1006","2",12,"look","no crave",140.9141,1.1147,1.111,2
"CHIVES1006","2",13,"look","neutral",152.9915,1.0765,1.073,3
"CHIVES1006","2",14,"look","no crave",165.0125,1.1435,1.14,2
"CHIVES1006","2",15,"look","crave",176.9754,0.9645,0.961,4
"CHIVES1006","2",16,"regulate","crave",189.1083,1.2797,1.276,3
"CHIVES1006","2",17,"look","no crave",201.1135,1.6267,1.623,1
"CHIVES1006","2",18,"look","no crave",213.0585,1.8251,1.822,2
"CHIVES1006","2",19,"regulate","crave",225.2296,1.5259,1.522,3
"CHIVES1006","2",20,"look","crave",237.1952,1.5287,1.525,4
"CHIVES1006","2",21,"look","neutral",249.5627,1.1055,1.102,2
"CHIVES1006","2",22,"look","neutral",262.6785,1.1732,1.17,3
"CHIVES1006","2",23,"look","crave",274.7792,1.6244,1.621,4
"CHIVES1006","2",24,"look","crave",286.831,2.0687,2.065,4
"CHIVES1006","2",25,"look","neutral",298.8958,0.8282,0.825,1
"CHIVES1006","2",26,"look","neutral",310.7606,0.9795,0.976,4
"CHIVES1006","2",27,"regulate","crave",323.1333,1.1989,1.195,2
"CHIVES1006","2",28,"regulate","crave",335.4635,1.6759,1.673,2
"CHIVES1006","2",29,"look","no crave",347.8472,0.8926,0.889,2
"CHIVES1006","2",30,"look","no crave",359.7587,1.5332,1.53,2
"CHIVES1006","2",31,"regulate","crave",371.945,0.9388,0.935,2
"CHIVES1006","2",32,"look","crave",383.745,1.2986,1.295,3
"CHIVES1006","2",33,"look","no crave",395.7475,0.8564,0.853,1
"CHIVES1006","2",34,"look","neutral",407.7446,1.0034,1,4
"CHIVES1006","2",35,"look","crave",419.5777,1.066,1.062,3
"CHIVES1006","2",36,"regulate","crave",431.445,1.4232,1.42,3
"CHIVES1006","2",37,"look","crave",443.4444,0.8637,0.86,4
"CHIVES1006","2",38,"look","no crave",455.264,0.908,0.905,1
"CHIVES1006","2",39,"look","neutral",467.3985,1.0456,1.042,2
"CHIVES1006","2",40,"regulate","crave",479.3806,0.9674,0.964,3
"CHIVES1007","1",1,"regulate","crave",8.1101,1.0229,0.954,2
"CHIVES1007","1",2,"look","neutral",20.0523,1.4818,1.476,2
"CHIVES1007","1",3,"look","crave",32.4556,1.445,1.44,4
"CHIVES1007","1",4,"look","crave",44.3689,1.179,1.175,3
"CHIVES1007","1",5,"look","neutral",56.3868,0.8816,0.878,4
"CHIVES1007","1",6,"look","no crave",68.9927,0.8675,0.864,5
"CHIVES1007","1",7,"look","crave",81.3585,2.4132,2.409,2
"CHIVES1007","1",8,"regulate","crave",93.4909,0.6576,0.654,1
"CHIVES1007","1",9,"look","no crave",105.5597,0.5962,0.592,5
"CHIVES1007","1",10,"look","no crave",117.7421,1.1419,1.138,4
"CHIVES1007","1",11,"regulate","crave",129.5634,0.7368,0.733,1
"CHIVES1007","1",12,"regulate","crave",141.5198,1.1006,1.097,2
"CHIVES1007","1",13,"look","crave",153.5308,1.6733,1.67,2
"CHIVES1007","1",14,"look","neutral",165.4722,1.596,1.592,2
"CHIVES1007","1",15,"look","neutral",177.8072,1.4613,1.457,3
"CHIVES1007","1",16,"look","crave",189.6378,1.9102,1.906,2
"CHIVES1007","1",17,"look","no crave",201.6061,1.5984,1.595,3
"CHIVES1007","1",18,"look","neutral",213.475,0.9934,0.989,5
"CHIVES1007","1",19,"regulate","crave",225.402,1.7384,1.735,2
"CHIVES1007","1",20,"look","crave",237.4044,1.8804,1.876,4
"CHIVES1007","1",21,"look","no crave",249.3532,1.2836,1.279,5
"CHIVES1007","1",22,"look","neutral",261.9388,2.3375,2.333,3
"CHIVES1007","1",23,"look","no crave",273.9059,1.0662,1.062,4
"CHIVES1007","1",24,"look","crave",285.7361,0.7883,0.784,5
"CHIVES1007","1",25,"regulate","crave",298.1105,2.0456,2.042,3
"CHIVES1007","1",26,"look","neutral",311.2205,0.8635,0.86,5
"CHIVES1007","1",27,"look","crave",323.2478,1.4288,1.425,2
"CHIVES1007","1",28,"look","no crave",335.0719,1.1717,1.168,2
"CHIVES1007","1",29,"look","neutral",347.0056,0.9108,0.907,5
"CHIVES1007","1",30,"regulate","crave",359.0253,2.4265,2.423,2
"CHIVES1007","1",31,"look","no crave",371.0695,1.5433,1.539,4
"CHIVES1007","1",32,"look","no crave",383.0902,2.1137,2.11,3
"CHIVES1007","1",33,"regulate","crave",395.1366,1.4911,1.487,1
"CHIVES1007","1",34,"regulate","crave",407.2737,3.1066,3.103,2
"CHIVES1007","1",35,"look","crave",419.2923,1.2235,1.22,3
"CHIVES1007","1",36,"look","crave",431.0918,1.5367,1.533,2
"CHIVES1007","1",37,"look","neutral",443.1055,1.0262,1.022,2
"CHIVES1007","1",38,"look","neutral",455.0588,1.0415,1.038,3
"CHIVES1007","1",39,"look","no crave",467.0211,0.8157,0.812,5
"CHIVES1007","1",40,"regulate","crave",479.0245,2.532,2.528,1
"CHIVES1007","2",1,"regulate","crave",7.9002,2.0958,2.004,3
"CHIVES1007","2",2,"look","neutral",19.8278,4.0001,0,NA
"CHIVES1007","2",3,"look","no crave",31.8309,0.6552,0.649,5
"CHIVES1007","2",4,"look","crave",44.8936,1.495,1.491,5
"CHIVES1007","2",5,"look","crave",56.7488,0.7592,0.756,4
"CHIVES1007","2",6,"look","neutral",69.0616,1.502,1.498,3
"CHIVES1007","2",7,"look","neutral",81.2145,0.6137,0.61,1
"CHIVES1007","2",8,"regulate","crave",93.2176,2.0908,2.087,4
"CHIVES1007","2",9,"regulate","crave",105.0333,2.6583,2.655,2
"CHIVES1007","2",10,"look","no crave",117.0326,0.9712,0.968,2
"CHIVES1007","2",11,"look","crave",128.9766,1.4433,1.44,3
"CHIVES1007","2",12,"look","no crave",140.8463,0.9256,0.922,2
"CHIVES1007","2",13,"look","neutral",152.9863,0.9937,0.99,2
"CHIVES1007","2",14,"look","no crave",164.9447,0.8036,0.8,4
"CHIVES1007","2",15,"look","crave",176.9616,0.8743,0.871,5
"CHIVES1007","2",16,"regulate","crave",189.0826,2.0011,1.997,4
"CHIVES1007","2",17,"look","no crave",201.0311,0.7408,0.737,5
"CHIVES1007","2",18,"look","no crave",212.9988,1.3652,1.361,3
"CHIVES1007","2",19,"regulate","crave",225.0634,1.3246,1.321,3
"CHIVES1007","2",20,"look","crave",237.0495,1.8425,1.839,5
"CHIVES1007","2",21,"look","neutral",249.3793,0.9375,0.934,1
"CHIVES1007","2",22,"look","neutral",262.4644,0.7959,0.792,4
"CHIVES1007","2",23,"look","crave",274.5311,1.1846,1.181,3
"CHIVES1007","2",24,"look","crave",286.4972,0.6667,0.663,5
"CHIVES1007","2",25,"look","neutral",298.6111,0.7692,0.766,1
"CHIVES1007","2",26,"look","neutral",310.4303,1.0937,1.09,1
"CHIVES1007","2",27,"regulate","crave",322.8184,1.2737,1.27,4
"CHIVES1007","2",28,"regulate","crave",335.1801,1.3839,1.38,2
"CHIVES1007","2",29,"look","no crave",347.5973,0.7753,0.772,5
"CHIVES1007","2",30,"look","no crave",359.5832,1.1249,1.121,4
"CHIVES1007","2",31,"regulate","crave",371.6845,1.7512,1.748,2
"CHIVES1007","2",32,"look","crave",383.5512,0.9729,0.969,1
"CHIVES1007","2",33,"look","no crave",395.5005,1.3448,1.34,4
"CHIVES1007","2",34,"look","neutral",407.4664,0.7776,0.774,1
"CHIVES1007","2",35,"look","crave",419.355,0.6335,0.629,5
"CHIVES1007","2",36,"regulate","crave",431.2266,1.8651,1.861,2
"CHIVES1007","2",37,"look","crave",443.2141,0.7418,0.738,5
"CHIVES1007","2",38,"look","no crave",455.0442,0.8165,0.813,4
"CHIVES1007","2",39,"look","neutral",467.2128,0.9433,0.94,1
"CHIVES1007","2",40,"regulate","crave",479.2309,1.125,1.121,4
"CHIVES1008","1",1,"regulate","crave",8.1992,1.2529,1.161,2
"CHIVES1008","1",2,"look","neutral",20.1729,0.7855,0.78,4
"CHIVES1008","1",3,"look","crave",32.5198,1.3736,1.369,4
"CHIVES1008","1",4,"look","crave",44.4865,1.1334,1.129,4
"CHIVES1008","1",5,"look","neutral",56.4171,1.4032,1.399,2
"CHIVES1008","1",6,"look","no crave",69.0709,0.8697,0.866,4
"CHIVES1008","1",7,"look","crave",81.3636,0.7051,0.701,5
"CHIVES1008","1",8,"regulate","crave",93.5556,1.3281,1.324,1
"CHIVES1008","1",9,"look","no crave",105.6316,0.8203,0.817,2
"CHIVES1008","1",10,"look","no crave",117.755,0.6889,0.685,3
"CHIVES1008","1",11,"regulate","crave",129.6209,0.9671,0.963,2
"CHIVES1008","1",12,"regulate","crave",141.5135,0.8507,0.847,1
"CHIVES1008","1",13,"look","crave",153.5037,0.5885,0.584,5
"CHIVES1008","1",14,"look","neutral",165.4663,0.7301,0.726,2
"CHIVES1008","1",15,"look","neutral",177.8005,0.8139,0.808,3
"CHIVES1008","1",16,"look","crave",189.6501,0.978,0.974,4
"CHIVES1008","1",17,"look","no crave",201.5795,1.4564,1.453,3
"CHIVES1008","1",18,"look","neutral",213.4333,0.7146,0.711,1
"CHIVES1008","1",19,"regulate","crave",225.3477,0.8799,0.876,1
"CHIVES1008","1",20,"look","crave",237.3312,0.8091,0.805,3
"CHIVES1008","1",21,"look","no crave",249.32,1.252,1.248,3
"CHIVES1008","1",22,"look","neutral",261.8834,1.2727,1.269,4
"CHIVES1008","1",23,"look","no crave",273.8696,1.254,1.25,2
"CHIVES1008","1",24,"look","crave",285.6797,1.5164,1.513,4
"CHIVES1008","1",25,"regulate","crave",298.1007,0.6715,0.668,1
"CHIVES1008","1",26,"look","neutral",311.2349,0.6335,0.629,1
"CHIVES1008","1",27,"look","crave",323.2344,0.8261,0.822,4
"CHIVES1008","1",28,"look","no crave",335.0849,0.727,0.723,3
"CHIVES1008","1",29,"look","neutral",347.0158,0.7092,0.705,3
"CHIVES1008","1",30,"regulate","crave",359.0396,0.7241,0.72,2
"CHIVES1008","1",31,"look","no crave",371.1307,0.7935,0.79,3
"CHIVES1008","1",32,"look","no crave",383.1175,0.9503,0.947,2
"CHIVES1008","1",33,"regulate","crave",395.2189,1.5378,1.534,2
"CHIVES1008","1",34,"regulate","crave",407.2827,1.1929,1.189,2
"CHIVES1008","1",35,"look","crave",419.2527,0.8318,0.828,3
"CHIVES1008","1",36,"look","crave",431.1,0.6406,0.636,3
"CHIVES1008","1",37,"look","neutral",443.0688,1.063,1.059,2
"CHIVES1008","1",38,"look","neutral",455.1016,0.7827,0.779,1
"CHIVES1008","1",39,"look","no crave",467.0527,0.8474,0.843,4
"CHIVES1008","1",40,"regulate","crave",479.0669,0.7056,0.701,2
"CHIVES1008","2",1,"regulate","crave",7.9398,2.5538,2.468,2
"CHIVES1008","2",2,"look","neutral",19.8701,1.4956,1.49,2
"CHIVES1008","2",3,"look","no crave",31.8888,1.8679,1.864,3
"CHIVES1008","2",4,"look","crave",44.9339,1.8303,1.827,3
"CHIVES1008","2",5,"look","crave",56.7845,0.6274,0.624,5
"CHIVES1008","2",6,"look","neutral",69.0989,1.1689,1.165,4
"CHIVES1008","2",7,"look","neutral",81.2726,1.6274,1.624,3
"CHIVES1008","2",8,"regulate","crave",93.2521,2.4235,2.42,4
"CHIVES1008","2",9,"regulate","crave",105.0489,0.6986,0.695,2
"CHIVES1008","2",10,"look","no crave",117.0594,1.0564,1.053,5
"CHIVES1008","2",11,"look","crave",129.0337,0.8505,0.847,5
"CHIVES1008","2",12,"look","no crave",140.8923,0.9832,0.98,4
"CHIVES1008","2",13,"look","neutral",152.9942,0.8656,0.862,4
"CHIVES1008","2",14,"look","no crave",165.0055,0.894,0.891,3
"CHIVES1008","2",15,"look","crave",177.0179,1.002,0.998,4
"CHIVES1008","2",16,"regulate","crave",189.0692,0.9342,0.931,3
"CHIVES1008","2",17,"look","no crave",201.0531,0.927,0.923,3
"CHIVES1008","2",18,"look","no crave",213.0544,0.7736,0.77,3
"CHIVES1008","2",19,"regulate","crave",225.1715,0.7357,0.732,2
"CHIVES1008","2",20,"look","crave",237.1379,0.7219,0.718,3
"CHIVES1008","2",21,"look","neutral",249.471,1.1971,1.193,2
"CHIVES1008","2",22,"look","neutral",262.5424,0.9251,0.922,4
"CHIVES1008","2",23,"look","crave",274.65,0.7302,0.727,5
"CHIVES1008","2",24,"look","crave",286.6568,1.1232,1.12,2
"CHIVES1008","2",25,"look","neutral",298.8534,0.8143,0.811,3
"CHIVES1008","2",26,"look","neutral",310.7224,0.9212,0.918,3
"CHIVES1008","2",27,"regulate","crave",323.1434,1.3561,1.352,2
"CHIVES1008","2",28,"regulate","crave",335.4997,0.8719,0.868,2
"CHIVES1008","2",29,"look","no crave",347.9228,1.3611,1.357,4
"CHIVES1008","2",30,"look","no crave",359.8556,0.908,0.904,3
"CHIVES1008","2",31,"regulate","crave",371.9341,1.4777,1.474,4
"CHIVES1008","2",32,"look","crave",383.8597,1.4886,1.485,3
"CHIVES1008","2",33,"look","no crave",395.8169,0.6433,0.64,2
"CHIVES1008","2",34,"look","neutral",407.8199,0.9997,0.996,2
"CHIVES1008","2",35,"look","crave",419.6828,1.3775,1.374,3
"CHIVES1008","2",36,"regulate","crave",431.5694,0.9146,0.911,3
"CHIVES1008","2",37,"look","crave",443.5868,1.0491,1.046,4
"CHIVES1008","2",38,"look","no crave",455.4163,0.6679,0.664,3
"CHIVES1008","2",39,"look","neutral",467.5952,0.8003,0.797,2
"CHIVES1008","2",40,"regulate","crave",479.6045,2.3837,2.38,3
"CHIVES1009","1",1,"regulate","crave",8.1221,2.8294,2.743,2
"CHIVES1009","1",2,"look","neutral",20.1048,0.7974,0.792,2
"CHIVES1009","1",3,"look","crave",32.4996,0.9368,0.932,4
"CHIVES1009","1",4,"look","crave",44.462,1.0383,1.035,4
"CHIVES1009","1",5,"look","neutral",56.4832,0.874,0.869,1
"CHIVES1009","1",6,"look","no crave",69.1725,0.8159,0.812,2
"CHIVES1009","1",7,"look","crave",81.5858,0.9782,0.974,3
"CHIVES1009","1",8,"regulate","crave",93.6675,1.1288,1.125,2
"CHIVES1009","1",9,"look","no crave",105.8348,1.2891,1.285,3
"CHIVES1009","1",10,"look","no crave",117.9199,1.4998,1.496,3
"CHIVES1009","1",11,"regulate","crave",129.8028,2.6652,2.661,3
"CHIVES1009","1",12,"regulate","crave",141.8375,1.1188,1.115,2
"CHIVES1009","1",13,"look","crave",153.8073,1.9803,1.977,3
"CHIVES1009","1",14,"look","neutral",165.8076,1.6687,1.665,4
"CHIVES1009","1",15,"look","neutral",178.202,0.866,0.862,2
"CHIVES1009","1",16,"look","crave",190.0061,1.8138,1.81,3
"CHIVES1009","1",17,"look","no crave",202.0206,1.3194,1.316,3
"CHIVES1009","1",18,"look","neutral",213.8859,1.0223,1.019,2
"CHIVES1009","1",19,"regulate","crave",225.8736,1.9463,1.943,2
"CHIVES1009","1",20,"look","crave",237.8442,0.6884,0.685,3
"CHIVES1009","1",21,"look","no crave",249.8348,2.009,2.005,2
"CHIVES1009","1",22,"look","neutral",262.4535,2.6709,2.667,3
"CHIVES1009","1",23,"look","no crave",274.4034,1.6969,1.693,2
"CHIVES1009","1",24,"look","crave",286.2864,0.9821,0.978,4
"CHIVES1009","1",25,"regulate","crave",298.6698,3.7986,3.795,2
"CHIVES1009","1",26,"look","neutral",311.7526,1.7075,1.704,2
"CHIVES1009","1",27,"look","crave",323.7552,1.0412,1.037,4
"CHIVES1009","1",28,"look","no crave",335.6432,1.1848,1.181,2
"CHIVES1009","1",29,"look","neutral",347.7051,0.707,0.703,4
"CHIVES1009","1",30,"regulate","crave",359.6376,2.271,2.267,2
"CHIVES1009","1",31,"look","no crave",371.8007,0.6438,0.64,2
"CHIVES1009","1",32,"look","no crave",383.771,1.3052,1.302,3
"CHIVES1009","1",33,"regulate","crave",395.8738,0.9221,0.918,3
"CHIVES1009","1",34,"regulate","crave",407.987,1.0012,0.998,2
"CHIVES1009","1",35,"look","crave",419.9519,1.3089,1.305,4
"CHIVES1009","1",36,"look","crave",431.8705,1.4783,1.474,4
"CHIVES1009","1",37,"look","neutral",443.838,0.5903,0.586,2
"CHIVES1009","1",38,"look","neutral",455.7586,0.718,0.714,1
"CHIVES1009","1",39,"look","no crave",467.7596,1.6447,1.641,4
"CHIVES1009","1",40,"regulate","crave",479.7239,1.0562,1.052,3
"CHIVES1009","2",1,"regulate","crave",7.9486,2.1557,2.076,1
"CHIVES1009","2",2,"look","neutral",19.9863,1.5865,1.582,3
"CHIVES1009","2",3,"look","no crave",31.8967,1.0907,1.087,1
"CHIVES1009","2",4,"look","crave",45.0573,1.1865,1.183,3
"CHIVES1009","2",5,"look","crave",56.9216,1.122,1.118,3
"CHIVES1009","2",6,"look","neutral",69.2467,1.1175,1.114,4
"CHIVES1009","2",7,"look","neutral",81.3307,1.2493,1.246,3
"CHIVES1009","2",8,"regulate","crave",93.2886,3.3309,3.327,2
"CHIVES1009","2",9,"regulate","crave",105.1183,1.2136,1.21,2
"CHIVES1009","2",10,"look","no crave",117.0504,2.3696,2.366,2
"CHIVES1009","2",11,"look","crave",129.0188,1.2814,1.278,4
"CHIVES1009","2",12,"look","no crave",140.9011,1.5826,1.579,2
"CHIVES1009","2",13,"look","neutral",152.9652,1.7671,1.764,4
"CHIVES1009","2",14,"look","no crave",165.0035,0.9363,0.933,3
"CHIVES1009","2",15,"look","crave",176.8982,0.9539,0.95,3
"CHIVES1009","2",16,"regulate","crave",189.0082,1.4199,1.416,2
"CHIVES1009","2",17,"look","no crave",201.0388,1.5488,1.545,2
"CHIVES1009","2",18,"look","no crave",212.9506,2.5176,2.514,4
"CHIVES1009","2",19,"regulate","crave",225.1242,1.2637,1.26,1
"CHIVES1009","2",20,"look","crave",237.0801,1.4036,1.4,3
"CHIVES1009","2",21,"look","neutral",249.4739,1.69,1.686,4
"CHIVES1009","2",22,"look","neutral",262.6234,1.8282,1.825,3
"CHIVES1009","2",23,"look","crave",274.7057,1.2665,1.263,4
"CHIVES1009","2",24,"look","crave",286.7689,2.0352,2.032,2
"CHIVES1009","2",25,"look","neutral",298.8343,1.6813,1.678,2
"CHIVES1009","2",26,"look","neutral",310.7062,1.3222,1.318,5
"CHIVES1009","2",27,"regulate","crave",323.0469,0.5091,0.506,3
"CHIVES1009","2",28,"regulate","crave",335.4767,1.9508,1.947,1
"CHIVES1009","2",29,"look","no crave",347.8202,0.7754,0.772,3
"CHIVES1009","2",30,"look","no crave",359.8047,0.9511,0.948,1
"CHIVES1009","2",31,"regulate","crave",371.9215,1.5303,1.527,2
"CHIVES1009","2",32,"look","crave",383.7885,0.5031,0.5,4
"CHIVES1009","2",33,"look","no crave",395.8021,0.7375,0.734,2
"CHIVES1009","2",34,"look","neutral",407.7873,1.0726,1.069,4
"CHIVES1009","2",35,"look","crave",419.6177,1.1861,1.183,4
"CHIVES1009","2",36,"regulate","crave",431.4873,1.6525,1.649,2
"CHIVES1009","2",37,"look","crave",443.4085,1.4679,1.464,2
"CHIVES1009","2",38,"look","no crave",455.2533,1.8623,1.859,3
"CHIVES1009","2",39,"look","neutral",467.3756,1.4521,1.449,3
"CHIVES1009","2",40,"regulate","crave",479.357,1.4308,1.427,2
"CHIVES1010","1",1,"regulate","crave",8.1087,2.8243,2.675,2
"CHIVES1010","1",2,"look","neutral",20.0486,2.5496,2.544,3
"CHIVES1010","1",3,"look","crave",32.4679,3.0573,3.053,4
"CHIVES1010","1",4,"look","crave",44.4142,2.2456,2.242,4
"CHIVES1010","1",5,"look","neutral",56.3645,2.3916,2.388,5
"CHIVES1010","1",6,"look","no crave",69.0521,2.3758,2.372,3
"CHIVES1010","1",7,"look","crave",81.3876,1.0963,1.093,5
"CHIVES1010","1",8,"regulate","crave",93.5359,1.3161,1.312,2
"CHIVES1010","1",9,"look","no crave",105.6191,2.113,2.109,3
"CHIVES1010","1",10,"look","no crave",117.7856,1.7702,1.767,4
"CHIVES1010","1",11,"regulate","crave",129.6551,1.3808,1.377,1
"CHIVES1010","1",12,"regulate","crave",141.6335,3.1062,3.103,3
"CHIVES1010","1",13,"look","crave",153.6354,1.313,1.309,3
"CHIVES1010","1",14,"look","neutral",165.5882,2.0317,2.028,5
"CHIVES1010","1",15,"look","neutral",177.9735,1.4782,1.474,5
"CHIVES1010","1",16,"look","crave",189.819,2.1456,2.142,5
"CHIVES1010","1",17,"look","no crave",201.7709,0.8014,0.798,2
"CHIVES1010","1",18,"look","neutral",213.5871,0.6087,0.605,4
"CHIVES1010","1",19,"regulate","crave",225.5718,0.8397,0.836,1
"CHIVES1010","1",20,"look","crave",237.5222,2.0339,2.03,4
"CHIVES1010","1",21,"look","no crave",249.5525,1.3794,1.376,2
"CHIVES1010","1",22,"look","neutral",262.1333,1.3269,1.323,4
"CHIVES1010","1",23,"look","no crave",274.1702,0.8256,0.822,3
"CHIVES1010","1",24,"look","crave",285.9982,1.5497,1.546,3
"CHIVES1010","1",25,"regulate","crave",298.4343,1.4337,1.43,2
"CHIVES1010","1",26,"look","neutral",311.5389,1.7608,1.757,4
"CHIVES1010","1",27,"look","crave",323.5401,0.9118,0.908,5
"CHIVES1010","1",28,"look","no crave",335.4205,2.7115,2.708,4
"CHIVES1010","1",29,"look","neutral",347.3312,2.6245,2.621,2
"CHIVES1010","1",30,"regulate","crave",359.4037,2.4087,2.405,2
"CHIVES1010","1",31,"look","no crave",371.5204,1.6515,1.648,4
"CHIVES1010","1",32,"look","no crave",383.4714,0.821,0.817,5
"CHIVES1010","1",33,"regulate","crave",395.6043,1.1993,1.196,1
"CHIVES1010","1",34,"regulate","crave",407.6877,1.5168,1.513,2
"CHIVES1010","1",35,"look","crave",419.754,1.4022,1.398,5
"CHIVES1010","1",36,"look","crave",431.5827,1.4609,1.457,2
"CHIVES1010","1",37,"look","neutral",443.5889,1.4155,1.412,3
"CHIVES1010","1",38,"look","neutral",455.6057,2.2142,2.211,2
"CHIVES1010","1",39,"look","no crave",467.5664,1.8212,1.818,1
"CHIVES1010","1",40,"regulate","crave",479.6369,2.9194,2.916,3
"CHIVES1010","2",1,"regulate","crave",7.8781,1.7144,1.634,2
"CHIVES1010","2",2,"look","neutral",19.8855,0.9206,0.915,5
"CHIVES1010","2",3,"look","no crave",31.8996,2.0092,2.005,1
"CHIVES1010","2",4,"look","crave",44.964,1.0241,1.02,5
"CHIVES1010","2",5,"look","crave",56.8494,1.0829,1.079,5
"CHIVES1010","2",6,"look","neutral",69.1507,1.0214,1.018,5
"CHIVES1010","2",7,"look","neutral",81.3509,0.9732,0.97,5
"CHIVES1010","2",8,"regulate","crave",93.3315,1.84,1.837,1
"CHIVES1010","2",9,"regulate","crave",105.133,1.7424,1.739,1
"CHIVES1010","2",10,"look","no crave",117.1325,1.4713,1.468,5
"CHIVES1010","2",11,"look","crave",129.0439,0.7123,0.709,5
"CHIVES1010","2",12,"look","no crave",140.8896,1.1062,1.103,3
"CHIVES1010","2",13,"look","neutral",152.9686,0.8512,0.848,5
"CHIVES1010","2",14,"look","no crave",164.9639,1.0801,1.076,2
"CHIVES1010","2",15,"look","crave",176.9862,0.722,0.718,5
"CHIVES1010","2",16,"regulate","crave",189.0978,1.9216,1.918,1
"CHIVES1010","2",17,"look","no crave",201.1667,0.5496,0.546,5
"CHIVES1010","2",18,"look","no crave",213.1709,0.657,0.654,2
"CHIVES1010","2",19,"regulate","crave",225.2337,1.0502,1.047,2
"CHIVES1010","2",20,"look","crave",237.2311,1.5327,1.529,4
"CHIVES1010","2",21,"look","neutral",249.5276,2.3319,2.328,5
"CHIVES1010","2",22,"look","neutral",262.6815,0.882,0.878,4
"CHIVES1010","2",23,"look","crave",274.7818,1.3184,1.315,5
"CHIVES1010","2",24,"look","crave",286.8177,2.8104,2.807,3
"CHIVES1010","2",25,"look","neutral",298.915,1.0649,1.061,5
"CHIVES1010","2",26,"look","neutral",310.7303,1.4104,1.406,5
"CHIVES1010","2",27,"regulate","crave",323.1319,2.4156,2.412,2
"CHIVES1010","2",28,"regulate","crave",335.4446,2.0788,2.075,2
"CHIVES1010","2",29,"look","no crave",347.8328,3.4188,3.415,4
"CHIVES1010","2",30,"look","no crave",359.7491,1.5185,1.515,3
"CHIVES1010","2",31,"regulate","crave",371.8819,2.0017,1.998,3
"CHIVES1010","2",32,"look","crave",383.7349,2.0213,2.018,4
"CHIVES1010","2",33,"look","no crave",395.6457,1.2702,1.267,4
"CHIVES1010","2",34,"look","neutral",407.7166,1.7031,1.7,2
"CHIVES1010","2",35,"look","crave",419.5516,0.9087,0.905,5
"CHIVES1010","2",36,"regulate","crave",431.4016,0.9463,0.943,1
"CHIVES1010","2",37,"look","crave",443.4318,1.2039,1.2,4
"CHIVES1010","2",38,"look","no crave",455.2473,1.1565,1.153,3
"CHIVES1010","2",39,"look","neutral",467.3818,1.0622,1.058,5
"CHIVES1010","2",40,"regulate","crave",479.3018,2.9505,2.947,2
"CHIVES1011","1",1,"regulate","crave",8.1588,4.0005,0,NA
"CHIVES1011","1",2,"look","neutral",20.1958,1.5626,1.557,3
"CHIVES1011","1",3,"look","crave",32.5648,1.4963,1.492,3
"CHIVES1011","1",4,"look","crave",44.5154,1.6567,1.653,2
"CHIVES1011","1",5,"look","neutral",56.5115,0.9002,0.897,2
"CHIVES1011","1",6,"look","no crave",69.0931,1.5588,1.555,5
"CHIVES1011","1",7,"look","crave",81.4787,1.9171,1.913,4
"CHIVES1011","1",8,"regulate","crave",93.5967,1.864,1.86,3
"CHIVES1011","1",9,"look","no crave",105.7473,1.6088,1.605,4
"CHIVES1011","1",10,"look","no crave",117.8458,0.9819,0.978,3
"CHIVES1011","1",11,"regulate","crave",129.6637,1.7807,1.777,3
"CHIVES1011","1",12,"regulate","crave",141.6617,2.2701,2.266,4
"CHIVES1011","1",13,"look","crave",153.6113,2.0886,2.085,4
"CHIVES1011","1",14,"look","neutral",165.6139,1.8964,1.891,4
"CHIVES1011","1",15,"look","neutral",177.9445,0.7473,0.743,5
"CHIVES1011","1",16,"look","crave",189.7805,1.2877,1.284,4
"CHIVES1011","1",17,"look","no crave",201.7617,0.8587,0.855,4
"CHIVES1011","1",18,"look","neutral",213.5918,0.7242,0.72,5
"CHIVES1011","1",19,"regulate","crave",225.6457,2.4941,2.49,3
"CHIVES1011","1",20,"look","crave",237.5986,0.71,0.706,5
"CHIVES1011","1",21,"look","no crave",249.5649,0.9835,0.98,3
"CHIVES1011","1",22,"look","neutral",262.2289,1.2472,1.243,3
"CHIVES1011","1",23,"look","no crave",274.1607,0.9796,0.976,3
"CHIVES1011","1",24,"look","crave",286.0803,0.8439,0.84,4
"CHIVES1011","1",25,"regulate","crave",298.4109,1.8648,1.861,4
"CHIVES1011","1",26,"look","neutral",311.5292,0.7868,0.783,5
"CHIVES1011","1",27,"look","crave",323.5281,0.8681,0.864,4
"CHIVES1011","1",28,"look","no crave",335.3604,0.7401,0.736,3
"CHIVES1011","1",29,"look","neutral",347.3449,0.8267,0.823,3
"CHIVES1011","1",30,"regulate","crave",359.2935,2.1827,2.179,4
"CHIVES1011","1",31,"look","no crave",371.4974,0.7463,0.743,2
"CHIVES1011","1",32,"look","no crave",383.48,0.6118,0.608,2
"CHIVES1011","1",33,"regulate","crave",395.5964,1.4878,1.484,3
"CHIVES1011","1",34,"regulate","crave",407.732,1.5603,1.557,2
"CHIVES1011","1",35,"look","crave",419.6794,0.6691,0.665,5
"CHIVES1011","1",36,"look","crave",431.5458,0.8739,0.87,4
"CHIVES1011","1",37,"look","neutral",443.4986,1.4093,1.405,4
"CHIVES1011","1",38,"look","neutral",455.4642,1.6598,1.656,5
"CHIVES1011","1",39,"look","no crave",467.4625,0.5657,0.562,5
"CHIVES1011","1",40,"regulate","crave",479.4136,2.735,2.731,3
"CHIVES1011","2",1,"regulate","crave",7.8847,0.9622,0.884,3
"CHIVES1011","2",2,"look","neutral",19.9717,1.3061,1.3,4
"CHIVES1011","2",3,"look","no crave",31.904,0.933,0.929,4
"CHIVES1011","2",4,"look","crave",45.0224,0.8934,0.89,5
"CHIVES1011","2",5,"look","crave",56.8718,1.6198,1.616,4
"CHIVES1011","2",6,"look","neutral",69.2069,0.9013,0.898,5
"CHIVES1011","2",7,"look","neutral",81.3371,0.867,0.863,5
"CHIVES1011","2",8,"regulate","crave",93.2829,2.0493,2.045,3
"CHIVES1011","2",9,"regulate","crave",105.1672,1.5408,1.537,3
"CHIVES1011","2",10,"look","no crave",117.1236,0.872,0.868,4
"CHIVES1011","2",11,"look","crave",129.0856,0.7424,0.739,5
"CHIVES1011","2",12,"look","no crave",140.9523,1.2433,1.24,5
"CHIVES1011","2",13,"look","neutral",153.0023,0.882,0.878,5
"CHIVES1011","2",14,"look","no crave",165.0389,0.8214,0.818,4
"CHIVES1011","2",15,"look","crave",177.0387,0.565,0.561,5
"CHIVES1011","2",16,"regulate","crave",189.0856,2.2863,2.283,3
"CHIVES1011","2",17,"look","no crave",201.0697,1.3901,1.386,4
"CHIVES1011","2",18,"look","no crave",213.0397,1.2203,1.217,3
"CHIVES1011","2",19,"regulate","crave",225.1207,1.4756,1.472,3
"CHIVES1011","2",20,"look","crave",237.0691,1.1911,1.188,5
"CHIVES1011","2",21,"look","neutral",249.4355,0.8104,0.805,3
"CHIVES1011","2",22,"look","neutral",262.5697,0.8666,0.863,4
"CHIVES1011","2",23,"look","crave",274.6534,0.7504,0.747,5
"CHIVES1011","2",24,"look","crave",286.6548,1.4692,1.466,4
"CHIVES1011","2",25,"look","neutral",298.7022,4.0002,0,NA
"CHIVES1011","2",26,"look","neutral",310.604,0.6556,0.652,5
"CHIVES1011","2",27,"regulate","crave",322.987,1.4167,1.413,3
"CHIVES1011","2",28,"regulate","crave",335.3536,1.8819,1.878,3
"CHIVES1011","2",29,"look","no crave",347.6868,0.6211,0.617,3
"CHIVES1011","2",30,"look","no crave",359.6691,0.9912,0.988,3
"CHIVES1011","2",31,"regulate","crave",371.7873,1.9285,1.925,2
"CHIVES1011","2",32,"look","crave",383.6382,0.9738,0.97,4
"CHIVES1011","2",33,"look","no crave",395.6389,0.9095,0.905,1
"CHIVES1011","2",34,"look","neutral",407.6358,0.8005,0.797,3
"CHIVES1011","2",35,"look","crave",419.4856,0.9985,0.995,5
"CHIVES1011","2",36,"regulate","crave",431.3192,1.4611,1.458,2
"CHIVES1011","2",37,"look","crave",443.2694,1.3104,1.307,5
"CHIVES1011","2",38,"look","no crave",455.119,1.1968,1.193,2
"CHIVES1011","2",39,"look","neutral",467.2222,0.8702,0.867,4
"CHIVES1011","2",40,"regulate","crave",479.1745,2.4699,2.466,3
"CHIVES1012","1",1,"regulate","crave",8.1276,4.0002,0,NA
"CHIVES1012","1",2,"look","neutral",20.1253,1.4196,1.339,1
"CHIVES1012","1",3,"look","crave",32.4958,1.2948,1.289,4
"CHIVES1012","1",4,"look","crave",44.444,0.7533,0.749,5
"CHIVES1012","1",5,"look","neutral",56.4598,1.0644,1.061,1
"CHIVES1012","1",6,"look","no crave",69.0448,0.9829,0.979,2
"CHIVES1012","1",7,"look","crave",81.3927,1.1711,1.167,3
"CHIVES1012","1",8,"regulate","crave",93.4436,1.0729,1.069,3
"CHIVES1012","1",9,"look","no crave",105.6253,1.8668,1.863,2
"CHIVES1012","1",10,"look","no crave",117.7451,1.2106,1.207,2
"CHIVES1012","1",11,"regulate","crave",129.5793,1.9608,1.957,4
"CHIVES1012","1",12,"regulate","crave",141.5918,1.4204,1.417,4
"CHIVES1012","1",13,"look","crave",153.5212,3.1631,3.159,4
"CHIVES1012","1",14,"look","neutral",165.4878,1.2361,1.232,1
"CHIVES1012","1",15,"look","neutral",177.8304,1.0381,1.034,1
"CHIVES1012","1",16,"look","crave",189.6795,2.4122,2.408,4
"CHIVES1012","1",17,"look","no crave",201.6764,1.1601,1.156,2
"CHIVES1012","1",18,"look","neutral",213.4722,1.196,1.192,2
"CHIVES1012","1",19,"regulate","crave",225.3942,3.4015,3.398,2
"CHIVES1012","1",20,"look","crave",237.3946,0.874,0.87,3
"CHIVES1012","1",21,"look","no crave",249.355,1.3054,1.302,3
"CHIVES1012","1",22,"look","neutral",261.9301,1.5381,1.534,2
"CHIVES1012","1",23,"look","no crave",273.9057,0.9384,0.935,2
"CHIVES1012","1",24,"look","crave",285.7651,0.8868,0.883,5
"CHIVES1012","1",25,"regulate","crave",298.1762,0.8602,0.856,3
"CHIVES1012","1",26,"look","neutral",311.3296,2.8981,2.894,2
"CHIVES1012","1",27,"look","crave",323.3118,0.6927,0.689,5
"CHIVES1012","1",28,"look","no crave",335.1972,0.9989,0.995,1
"CHIVES1012","1",29,"look","neutral",347.2118,0.9762,0.972,1
"CHIVES1012","1",30,"regulate","crave",359.1919,0.9406,0.937,4
"CHIVES1012","1",31,"look","no crave",371.3671,1.6046,1.601,2
"CHIVES1012","1",32,"look","no crave",383.3635,2.5362,2.532,2
"CHIVES1012","1",33,"regulate","crave",395.4621,1.5983,1.594,3
"CHIVES1012","1",34,"regulate","crave",407.5804,0.9437,0.94,3
"CHIVES1012","1",35,"look","crave",419.5208,0.963,0.959,4
"CHIVES1012","1",36,"look","crave",431.4134,1.3748,1.371,4
"CHIVES1012","1",37,"look","neutral",443.4131,4.0006,0,NA
"CHIVES1012","1",38,"look","neutral",455.396,0.8397,0.836,1
"CHIVES1012","1",39,"look","no crave",467.4257,0.8665,0.863,2
"CHIVES1012","1",40,"regulate","crave",479.3411,0.9512,0.947,4
"CHIVES1012","2",1,"regulate","crave",7.8799,2.7502,2.664,3
"CHIVES1012","2",2,"look","neutral",19.8667,1.5865,1.581,1
"CHIVES1012","2",3,"look","no crave",31.7955,1.0888,1.084,4
"CHIVES1012","2",4,"look","crave",44.8897,0.066,0.062,5
"CHIVES1012","2",5,"look","crave",56.7146,2.3934,2.39,4
"CHIVES1012","2",6,"look","neutral",69.1341,1.4615,1.458,3
"CHIVES1012","2",7,"look","neutral",81.2116,1.6157,1.612,2
"CHIVES1012","2",8,"regulate","crave",93.2129,1.8951,1.892,3
"CHIVES1012","2",9,"regulate","crave",105.0655,1.4665,1.463,3
"CHIVES1012","2",10,"look","no crave",116.9862,1.4898,1.486,2
"CHIVES1012","2",11,"look","crave",128.9485,0.7434,0.739,5
"CHIVES1012","2",12,"look","no crave",140.7864,1.5772,1.574,2
"CHIVES1012","2",13,"look","neutral",152.8784,1.5096,1.506,3
"CHIVES1012","2",14,"look","no crave",164.8827,1.0334,1.03,2
"CHIVES1012","2",15,"look","crave",176.8027,0.7689,0.765,5
"CHIVES1012","2",16,"regulate","crave",188.9501,2.4295,2.426,4
"CHIVES1012","2",17,"look","no crave",200.8965,2.2197,2.216,2
"CHIVES1012","2",18,"look","no crave",212.829,1.3748,1.371,3
"CHIVES1012","2",19,"regulate","crave",224.9196,1.3001,1.296,4
"CHIVES1012","2",20,"look","crave",236.9144,1.025,1.021,4
"CHIVES1012","2",21,"look","neutral",249.2982,1.2577,1.254,1
"CHIVES1012","2",22,"look","neutral",262.387,1.4963,1.493,2
"CHIVES1012","2",23,"look","crave",274.4964,1.0354,1.032,5
"CHIVES1012","2",24,"look","crave",286.4496,0.8584,0.855,5
"CHIVES1012","2",25,"look","neutral",298.5035,1.5728,1.569,2
"CHIVES1012","2",26,"look","neutral",310.3198,1.3081,1.305,1
"CHIVES1012","2",27,"regulate","crave",322.6495,1.5062,1.502,4
"CHIVES1012","2",28,"regulate","crave",335.0506,1.1609,1.157,3
"CHIVES1012","2",29,"look","no crave",347.3613,1.107,1.103,3
"CHIVES1012","2",30,"look","no crave",359.3314,1.2165,1.213,2
"CHIVES1012","2",31,"regulate","crave",371.4824,1.0812,1.077,4
"CHIVES1012","2",32,"look","crave",383.2947,1.2371,1.233,4
"CHIVES1012","2",33,"look","no crave",395.2534,0.902,0.898,1
"CHIVES1012","2",34,"look","neutral",407.2457,1.3747,1.371,4
"CHIVES1012","2",35,"look","crave",419.1119,0.8842,0.88,5
"CHIVES1012","2",36,"regulate","crave",430.9668,1.3488,1.345,3
"CHIVES1012","2",37,"look","crave",442.8965,0.7632,0.76,5
"CHIVES1012","2",38,"look","no crave",454.7655,1.3501,1.347,2
"CHIVES1012","2",39,"look","neutral",466.8835,1.2718,1.268,1
"CHIVES1012","2",40,"regulate","crave",478.8367,1.0314,1.028,4
"CHIVES1013","1",1,"regulate","crave",8.1649,2.2923,2.211,2
"CHIVES1013","1",2,"look","neutral",20.1271,1.5909,1.585,1
"CHIVES1013","1",3,"look","crave",32.4791,1.2613,1.257,3
"CHIVES1013","1",4,"look","crave",44.4927,1.1988,1.195,2
"CHIVES1013","1",5,"look","neutral",56.4339,1.5863,1.583,2
"CHIVES1013","1",6,"look","no crave",69.095,1.8852,1.881,2
"CHIVES1013","1",7,"look","crave",81.4261,1.8502,1.847,2
"CHIVES1013","1",8,"regulate","crave",93.5937,1.5059,1.502,2
"CHIVES1013","1",9,"look","no crave",105.6755,1.2968,1.293,1
"CHIVES1013","1",10,"look","no crave",117.8784,1.397,1.393,1
"CHIVES1013","1",11,"regulate","crave",129.7452,1.4426,1.439,2
"CHIVES1013","1",12,"regulate","crave",141.6921,0.8713,0.868,1
"CHIVES1013","1",13,"look","crave",153.7616,1.2502,1.246,2
"CHIVES1013","1",14,"look","neutral",165.7447,0.9391,0.935,2
"CHIVES1013","1",15,"look","neutral",178.153,0.7466,0.743,3
"CHIVES1013","1",16,"look","crave",190.0471,1.6925,1.689,1
"CHIVES1013","1",17,"look","no crave",201.9919,1.4284,1.425,3
"CHIVES1013","1",18,"look","neutral",213.8791,0.8368,0.833,4
"CHIVES1013","1",19,"regulate","crave",225.7922,1.3318,1.328,1
"CHIVES1013","1",20,"look","crave",237.8639,0.6917,0.688,2
"CHIVES1013","1",21,"look","no crave",249.8416,0.9224,0.919,1
"CHIVES1013","1",22,"look","neutral",262.4807,1.259,1.255,3
"CHIVES1013","1",23,"look","no crave",274.5085,1.2555,1.252,1
"CHIVES1013","1",24,"look","crave",286.3074,1.1206,1.117,2
"CHIVES1013","1",25,"regulate","crave",298.6956,0.8926,0.889,1
"CHIVES1013","1",26,"look","neutral",311.7899,0.7184,0.715,4
"CHIVES1013","1",27,"look","crave",323.896,1.0281,1.024,1
"CHIVES1013","1",28,"look","no crave",335.7483,0.8314,0.828,1
"CHIVES1013","1",29,"look","neutral",347.6779,0.7338,0.73,4
"CHIVES1013","1",30,"regulate","crave",359.7084,2.1832,2.18,2
"CHIVES1013","1",31,"look","no crave",371.772,1.2316,1.228,2
"CHIVES1013","1",32,"look","no crave",383.828,0.7519,0.748,1
"CHIVES1013","1",33,"regulate","crave",395.943,1.8366,1.833,3
"CHIVES1013","1",34,"regulate","crave",408.0434,2.0566,2.053,2
"CHIVES1013","1",35,"look","crave",420.0919,0.9917,0.988,2
"CHIVES1013","1",36,"look","crave",431.9078,0.8799,0.876,1
"CHIVES1013","1",37,"look","neutral",443.9836,1.0446,1.041,3
"CHIVES1013","1",38,"look","neutral",455.9588,0.8695,0.866,4
"CHIVES1013","1",39,"look","no crave",467.9606,0.8112,0.808,1
"CHIVES1013","1",40,"regulate","crave",480.0121,1.1917,1.188,2
"CHIVES1013","2",1,"regulate","crave",7.8901,3.1328,3.046,2
"CHIVES1013","2",2,"look","neutral",19.854,3.0798,3.074,1
"CHIVES1013","2",3,"look","no crave",31.8214,1.199,1.195,1
"CHIVES1013","2",4,"look","crave",44.954,1.5855,1.582,3
"CHIVES1013","2",5,"look","crave",56.8241,1.9957,1.992,4
"CHIVES1013","2",6,"look","neutral",69.2205,1.2876,1.284,4
"CHIVES1013","2",7,"look","neutral",81.304,1.0274,1.024,2
"CHIVES1013","2",8,"regulate","crave",93.3215,2.0423,2.039,2
"CHIVES1013","2",9,"regulate","crave",105.2221,1.086,1.083,2
"CHIVES1013","2",10,"look","no crave",117.2719,3.6279,3.624,3
"CHIVES1013","2",11,"look","crave",129.2523,1.9434,1.94,3
"CHIVES1013","2",12,"look","no crave",141.1014,1.782,1.779,1
"CHIVES1013","2",13,"look","neutral",153.2186,1.0017,0.998,4
"CHIVES1013","2",14,"look","no crave",165.2194,0.9923,0.989,1
"CHIVES1013","2",15,"look","crave",177.2907,0.8569,0.853,2
"CHIVES1013","2",16,"regulate","crave",189.389,1.2312,1.228,2
"CHIVES1013","2",17,"look","no crave",201.3546,1.2088,1.205,1
"CHIVES1013","2",18,"look","no crave",213.3701,0.8015,0.798,1
"CHIVES1013","2",19,"regulate","crave",225.4206,2.7914,2.788,2
"CHIVES1013","2",20,"look","crave",237.4702,0.8454,0.842,4
"CHIVES1013","2",21,"look","neutral",249.9069,0.8488,0.845,1
"CHIVES1013","2",22,"look","neutral",263.0218,2.4376,2.434,2
"CHIVES1013","2",23,"look","crave",275.1059,1.3696,1.366,1
"CHIVES1013","2",24,"look","crave",287.1188,1.0688,1.065,2
"CHIVES1013","2",25,"look","neutral",299.2703,3.9093,3.906,3
"CHIVES1013","2",26,"look","neutral",311.1414,0.934,0.93,1
"CHIVES1013","2",27,"regulate","crave",323.5351,1.0529,1.049,3
"CHIVES1013","2",28,"regulate","crave",335.9235,1.008,1.005,1
"CHIVES1013","2",29,"look","no crave",348.2882,0.8998,0.896,1
"CHIVES1013","2",30,"look","no crave",360.287,0.6049,0.601,1
"CHIVES1013","2",31,"regulate","crave",372.4039,1.2799,1.276,1
"CHIVES1013","2",32,"look","crave",384.3216,1.3785,1.375,4
"CHIVES1013","2",33,"look","no crave",396.3068,1.5453,1.542,1
"CHIVES1013","2",34,"look","neutral",408.2655,2.4265,2.423,3
"CHIVES1013","2",35,"look","crave",420.1727,0.9351,0.931,4
"CHIVES1013","2",36,"regulate","crave",431.9853,1.266,1.263,2
"CHIVES1013","2",37,"look","crave",444.0017,1.9155,1.911,2
"CHIVES1013","2",38,"look","no crave",455.8045,1.5988,1.595,1
"CHIVES1013","2",39,"look","neutral",467.904,1.9317,1.928,1
"CHIVES1013","2",40,"regulate","crave",479.9531,1.5229,1.519,2
"CHIVES1014","1",1,"regulate","crave",8.1482,3.6833,3.54,2
"CHIVES1014","1",2,"look","neutral",20.1295,1.4046,1.399,3
"CHIVES1014","1",3,"look","crave",32.4483,4.0003,0,NA
"CHIVES1014","1",4,"look","crave",44.4037,3.5285,3.525,3
"CHIVES1014","1",5,"look","neutral",56.3584,0.6859,0.682,1
"CHIVES1014","1",6,"look","no crave",68.943,0.7329,0.729,3
"CHIVES1014","1",7,"look","crave",81.3102,0.6223,0.618,5
"CHIVES1014","1",8,"regulate","crave",93.3947,1.617,1.613,2
"CHIVES1014","1",9,"look","no crave",105.505,0.6595,0.656,4
"CHIVES1014","1",10,"look","no crave",117.5921,1.1403,1.136,5
"CHIVES1014","1",11,"regulate","crave",129.4461,2.3899,2.386,2
"CHIVES1014","1",12,"regulate","crave",141.4585,2.3212,2.317,1
"CHIVES1014","1",13,"look","crave",153.3823,0.5813,0.578,1
"CHIVES1014","1",14,"look","neutral",165.4443,1.3599,1.356,1
"CHIVES1014","1",15,"look","neutral",177.7929,0.6747,0.671,1
"CHIVES1014","1",16,"look","crave",189.6048,0.8711,0.867,2
"CHIVES1014","1",17,"look","no crave",201.59,0.7584,0.754,5
"CHIVES1014","1",18,"look","neutral",213.442,0.7461,0.742,1
"CHIVES1014","1",19,"regulate","crave",225.4411,1.6428,1.639,4
"CHIVES1014","1",20,"look","crave",237.4073,0.8292,0.825,2
"CHIVES1014","1",21,"look","no crave",249.4418,0.8507,0.847,5
"CHIVES1014","1",22,"look","neutral",262.091,1.9611,1.957,2
"CHIVES1014","1",23,"look","no crave",274.044,1.0556,1.052,4
"CHIVES1014","1",24,"look","crave",285.9079,0.808,0.804,5
"CHIVES1014","1",25,"regulate","crave",298.2252,2.3386,2.335,2
"CHIVES1014","1",26,"look","neutral",311.3745,0.7897,0.786,1
"CHIVES1014","1",27,"look","crave",323.2884,0.6993,0.695,4
"CHIVES1014","1",28,"look","no crave",335.208,0.572,0.568,3
"CHIVES1014","1",29,"look","neutral",347.2102,0.8815,0.878,3
"CHIVES1014","1",30,"regulate","crave",359.1381,2.2179,2.214,4
"CHIVES1014","1",31,"look","no crave",371.2735,0.8829,0.879,4
"CHIVES1014","1",32,"look","no crave",383.2393,2.7172,2.713,3
"CHIVES1014","1",33,"regulate","crave",395.3771,2.0353,2.031,4
"CHIVES1014","1",34,"regulate","crave",407.5274,1.3727,1.369,4
"CHIVES1014","1",35,"look","crave",419.46,0.6798,0.676,2
"CHIVES1014","1",36,"look","crave",431.3453,1.9471,1.943,2
"CHIVES1014","1",37,"look","neutral",443.3064,0.7699,0.766,1
"CHIVES1014","1",38,"look","neutral",455.3775,0.5704,0.567,1
"CHIVES1014","1",39,"look","no crave",467.3744,0.742,0.738,2
"CHIVES1014","1",40,"regulate","crave",479.2943,0.9897,0.986,1
"CHIVES1014","2",1,"regulate","crave",7.9381,2.0429,1.918,2
"CHIVES1014","2",2,"look","neutral",19.9397,1.3143,1.309,2
"CHIVES1014","2",3,"look","no crave",31.9196,0.5731,0.569,3
"CHIVES1014","2",4,"look","crave",45.0205,0.7512,0.747,5
"CHIVES1014","2",5,"look","crave",56.8346,0.6337,0.63,5
"CHIVES1014","2",6,"look","neutral",69.201,1.0191,1.016,2
"CHIVES1014","2",7,"look","neutral",81.3038,0.9401,0.937,1
"CHIVES1014","2",8,"regulate","crave",93.2257,3.002,2.998,2
"CHIVES1014","2",9,"regulate","crave",105.1034,1.2682,1.265,2
"CHIVES1014","2",10,"look","no crave",117.0873,1.5482,1.545,2
"CHIVES1014","2",11,"look","crave",129.1069,0.5448,0.541,2
"CHIVES1014","2",12,"look","no crave",140.9545,0.4495,0.446,1
"CHIVES1014","2",13,"look","neutral",153.0045,1.6475,1.644,1
"CHIVES1014","2",14,"look","no crave",165.0709,0.5646,0.561,2
"CHIVES1014","2",15,"look","crave",177.0878,0.5082,0.504,4
"CHIVES1014","2",16,"regulate","crave",189.1406,2.4392,2.436,2
"CHIVES1014","2",17,"look","no crave",201.1327,0.5513,0.548,5
"CHIVES1014","2",18,"look","no crave",213.2205,0.8074,0.804,2
"CHIVES1014","2",19,"regulate","crave",225.3899,1.8704,1.867,3
"CHIVES1014","2",20,"look","crave",237.3915,0.5566,0.553,5
"CHIVES1014","2",21,"look","neutral",249.7415,0.9183,0.915,5
"CHIVES1014","2",22,"look","neutral",262.8169,0.5468,0.543,2
"CHIVES1014","2",23,"look","crave",274.9378,0.5467,0.543,5
"CHIVES1014","2",24,"look","crave",286.9518,1.0362,1.033,3
"CHIVES1014","2",25,"look","neutral",299.0173,0.5789,0.575,1
"CHIVES1014","2",26,"look","neutral",310.9397,1.3923,1.389,1
"CHIVES1014","2",27,"regulate","crave",323.2915,2.3522,2.349,3
"CHIVES1014","2",28,"regulate","crave",335.6902,2.4577,2.454,2
"CHIVES1014","2",29,"look","no crave",348.056,0.6036,0.6,1
"CHIVES1014","2",30,"look","no crave",359.9904,0.6378,0.634,3
"CHIVES1014","2",31,"regulate","crave",372.1521,1.4757,1.472,1
"CHIVES1014","2",32,"look","crave",383.9713,0.5205,0.517,2
"CHIVES1014","2",33,"look","no crave",395.9584,0.6298,0.626,2
"CHIVES1014","2",34,"look","neutral",407.9879,0.6159,0.612,3
"CHIVES1014","2",35,"look","crave",419.7749,0.8291,0.825,5
"CHIVES1014","2",36,"regulate","crave",431.6865,0.9976,0.994,2
"CHIVES1014","2",37,"look","crave",443.6737,0.6421,0.638,5
"CHIVES1014","2",38,"look","no crave",455.4919,0.5364,0.533,3
"CHIVES1014","2",39,"look","neutral",467.6731,0.7152,0.712,2
"CHIVES1014","2",40,"regulate","crave",479.6506,1.0171,1.013,3
"CHIVES1016","1",1,"regulate","crave",8.1285,2.0838,1.952,5
"CHIVES1016","1",2,"look","neutral",20.0853,1.4891,1.483,5
"CHIVES1016","1",3,"look","crave",32.4405,1.2124,1.208,4
"CHIVES1016","1",4,"look","crave",44.4784,2.0293,2.026,4
"CHIVES1016","1",5,"look","neutral",56.4223,1.0216,1.018,5
"CHIVES1016","1",6,"look","no crave",69.0662,2.3854,2.382,1
"CHIVES1016","1",7,"look","crave",81.4049,0.8714,0.868,5
"CHIVES1016","1",8,"regulate","crave",93.4787,2.1653,2.162,3
"CHIVES1016","1",9,"look","no crave",105.6182,0.8735,0.87,1
"CHIVES1016","1",10,"look","no crave",117.7079,1.4078,1.404,1
"CHIVES1016","1",11,"regulate","crave",129.5986,1.2213,1.218,3
"CHIVES1016","1",12,"regulate","crave",141.5055,1.7386,1.735,2
"CHIVES1016","1",13,"look","crave",153.5642,1.4715,1.468,4
"CHIVES1016","1",14,"look","neutral",165.5676,1.0204,1.017,4
"CHIVES1016","1",15,"look","neutral",177.926,0.8697,0.866,4
"CHIVES1016","1",16,"look","crave",189.7982,2.7415,2.738,2
"CHIVES1016","1",17,"look","no crave",201.7428,2.4933,2.49,2
"CHIVES1016","1",18,"look","neutral",213.631,0.7494,0.746,5
"CHIVES1016","1",19,"regulate","crave",225.6355,0.8728,0.869,4
"CHIVES1016","1",20,"look","crave",237.5921,0.9955,0.992,2
"CHIVES1016","1",21,"look","no crave",249.6365,0.7116,0.708,4
"CHIVES1016","1",22,"look","neutral",262.2252,0.5789,0.575,5
"CHIVES1016","1",23,"look","no crave",274.1828,0.7254,0.722,1
"CHIVES1016","1",24,"look","crave",286.0023,0.6496,0.646,4
"CHIVES1016","1",25,"regulate","crave",298.4122,0.7598,0.756,2
"CHIVES1016","1",26,"look","neutral",311.4975,0.6265,0.623,5
"CHIVES1016","1",27,"look","crave",323.4726,0.6354,0.632,5
"CHIVES1016","1",28,"look","no crave",335.3845,0.8598,0.856,2
"CHIVES1016","1",29,"look","neutral",347.3388,0.5856,0.582,5
"CHIVES1016","1",30,"regulate","crave",359.3789,0.8975,0.894,1
"CHIVES1016","1",31,"look","no crave",371.5013,0.9429,0.939,3
"CHIVES1016","1",32,"look","no crave",383.4407,0.7797,0.776,1
"CHIVES1016","1",33,"regulate","crave",395.5492,0.7265,0.723,2
"CHIVES1016","1",34,"regulate","crave",407.6542,0.782,0.778,2
"CHIVES1016","1",35,"look","crave",419.616,1.0359,1.032,2
"CHIVES1016","1",36,"look","crave",431.4848,0.8954,0.892,1
"CHIVES1016","1",37,"look","neutral",443.4918,1.0642,1.06,2
"CHIVES1016","1",38,"look","neutral",455.5349,0.7492,0.745,2
"CHIVES1016","1",39,"look","no crave",467.4895,0.7224,0.719,1
"CHIVES1016","1",40,"regulate","crave",479.5274,0.7485,0.745,2
"CHIVES1016","2",1,"regulate","crave",7.8636,0.9476,0.881,1
"CHIVES1016","2",2,"look","neutral",19.8726,1.3495,1.344,2
"CHIVES1016","2",3,"look","no crave",31.8767,1.4483,1.444,1
"CHIVES1016","2",4,"look","crave",45.0919,0.8079,0.804,4
"CHIVES1016","2",5,"look","crave",56.9107,1.5728,1.569,3
"CHIVES1016","2",6,"look","neutral",69.2369,0.8549,0.851,2
"CHIVES1016","2",7,"look","neutral",81.411,1.121,1.117,4
"CHIVES1016","2",8,"regulate","crave",93.3353,2.2687,2.265,3
"CHIVES1016","2",9,"regulate","crave",105.207,1.0766,1.073,2
"CHIVES1016","2",10,"look","no crave",117.2468,0.8851,0.882,1
"CHIVES1016","2",11,"look","crave",129.1712,1.1445,1.141,1
"CHIVES1016","2",12,"look","no crave",141.0428,1.1849,1.182,1
"CHIVES1016","2",13,"look","neutral",153.1336,0.7657,0.762,2
"CHIVES1016","2",14,"look","no crave",165.1714,1.1206,1.117,1
"CHIVES1016","2",15,"look","crave",177.1423,0.9253,0.922,4
"CHIVES1016","2",16,"regulate","crave",189.2026,1.0576,1.054,2
"CHIVES1016","2",17,"look","no crave",201.1891,0.9033,0.9,1
"CHIVES1016","2",18,"look","no crave",213.1833,0.8365,0.833,2
"CHIVES1016","2",19,"regulate","crave",225.2897,1.4738,1.47,2
"CHIVES1016","2",20,"look","crave",237.3319,0.7922,0.788,5
"CHIVES1016","2",21,"look","neutral",249.6674,1.0964,1.093,3
"CHIVES1016","2",22,"look","neutral",262.7781,0.6737,0.67,5
"CHIVES1016","2",23,"look","crave",274.8494,0.8981,0.894,4
"CHIVES1016","2",24,"look","crave",286.8761,1.088,1.085,2
"CHIVES1016","2",25,"look","neutral",298.9292,0.6343,0.631,4
"CHIVES1016","2",26,"look","neutral",310.7886,0.8233,0.82,5
"CHIVES1016","2",27,"regulate","crave",323.2191,0.9049,0.901,2
"CHIVES1016","2",28,"regulate","crave",335.5582,1.0855,1.082,2
"CHIVES1016","2",29,"look","no crave",347.9457,1.13,1.126,4
"CHIVES1016","2",30,"look","no crave",359.9052,0.8431,0.839,3
"CHIVES1016","2",31,"regulate","crave",372.0093,0.683,0.679,1
"CHIVES1016","2",32,"look","crave",383.899,0.793,0.789,1
"CHIVES1016","2",33,"look","no crave",395.8223,0.8057,0.802,3
"CHIVES1016","2",34,"look","neutral",407.8237,0.684,0.68,4
"CHIVES1016","2",35,"look","crave",419.6353,1.3766,1.373,2
"CHIVES1016","2",36,"regulate","crave",431.5609,1.0593,1.056,2
"CHIVES1016","2",37,"look","crave",443.4984,0.8495,0.846,5
"CHIVES1016","2",38,"look","no crave",455.3215,1.0987,1.095,3
"CHIVES1016","2",39,"look","neutral",467.497,0.6669,0.663,5
"CHIVES1016","2",40,"regulate","crave",479.4507,1.0328,1.029,1
"CHIVES1017","1",1,"regulate","crave",8.1828,3.6835,3.593,3
"CHIVES1017","1",2,"look","neutral",20.1047,1.1959,1.192,1
"CHIVES1017","1",3,"look","crave",32.4356,1.9764,1.973,4
"CHIVES1017","1",4,"look","crave",44.4196,1.3201,1.316,4
"CHIVES1017","1",5,"look","neutral",56.3484,0.8956,0.892,1
"CHIVES1017","1",6,"look","no crave",68.9847,1.1393,1.135,4
"CHIVES1017","1",7,"look","crave",81.3002,0.8399,0.836,5
"CHIVES1017","1",8,"regulate","crave",93.3847,3.676,3.672,3
"CHIVES1017","1",9,"look","no crave",105.4516,1.7043,1.701,4
"CHIVES1017","1",10,"look","no crave",117.5133,0.7152,0.711,3
"CHIVES1017","1",11,"regulate","crave",129.3866,1.5456,1.542,3
"CHIVES1017","1",12,"regulate","crave",141.3137,1.3304,1.326,3
"CHIVES1017","1",13,"look","crave",153.3041,0.7886,0.784,5
"CHIVES1017","1",14,"look","neutral",165.2675,0.889,0.885,2
"CHIVES1017","1",15,"look","neutral",177.5967,0.8791,0.875,2
"CHIVES1017","1",16,"look","crave",189.4368,0.8313,0.827,5
"CHIVES1017","1",17,"look","no crave",201.3834,0.9253,0.921,4
"CHIVES1017","1",18,"look","neutral",213.1992,1.1167,1.113,2
"CHIVES1017","1",19,"regulate","crave",225.1366,1.1475,1.144,3
"CHIVES1017","1",20,"look","crave",237.0742,1.9775,1.974,4
"CHIVES1017","1",21,"look","no crave",249.0698,0.8062,0.802,3
"CHIVES1017","1",22,"look","neutral",261.6301,1.4859,1.482,2
"CHIVES1017","1",23,"look","no crave",273.6193,1.8966,1.893,3
"CHIVES1017","1",24,"look","crave",285.4537,0.9104,0.906,5
"CHIVES1017","1",25,"regulate","crave",297.7814,0.9034,0.899,3
"CHIVES1017","1",26,"look","neutral",310.9057,1.5623,1.559,1
"CHIVES1017","1",27,"look","crave",322.8493,0.9949,0.991,5
"CHIVES1017","1",28,"look","no crave",334.7194,1.3326,1.329,4
"CHIVES1017","1",29,"look","neutral",346.7545,1.1293,1.126,3
"CHIVES1017","1",30,"regulate","crave",358.6688,1.5592,1.555,4
"CHIVES1017","1",31,"look","no crave",370.7919,1.0283,1.025,4
"CHIVES1017","1",32,"look","no crave",382.7371,1.0666,1.063,3
"CHIVES1017","1",33,"regulate","crave",394.8201,1.5597,1.556,3
"CHIVES1017","1",34,"regulate","crave",406.9173,1.1022,1.099,3
"CHIVES1017","1",35,"look","crave",418.9028,0.7495,0.745,5
"CHIVES1017","1",36,"look","crave",430.7877,0.8247,0.821,5
"CHIVES1017","1",37,"look","neutral",442.7165,1.3756,1.372,1
"CHIVES1017","1",38,"look","neutral",454.701,0.6874,0.684,1
"CHIVES1017","1",39,"look","no crave",466.699,0.9215,0.918,4
"CHIVES1017","1",40,"regulate","crave",478.6851,1.575,1.571,3
"CHIVES1017","2",1,"regulate","crave",7.8401,1.175,1.088,3
"CHIVES1017","2",2,"look","neutral",19.8246,0.8213,0.816,1
"CHIVES1017","2",3,"look","no crave",31.7988,0.8859,0.881,4
"CHIVES1017","2",4,"look","crave",44.8576,0.8019,0.798,5
"CHIVES1017","2",5,"look","crave",56.6965,0.755,0.751,5
"CHIVES1017","2",6,"look","neutral",69.0414,0.883,0.879,4
"CHIVES1017","2",7,"look","neutral",81.1465,0.9458,0.942,2
"CHIVES1017","2",8,"regulate","crave",93.1114,2.3408,2.337,3
"CHIVES1017","2",9,"regulate","crave",104.9112,2.6045,2.601,4
"CHIVES1017","2",10,"look","no crave",116.8955,0.9248,0.921,5
"CHIVES1017","2",11,"look","crave",128.8265,1.8174,1.814,3
"CHIVES1017","2",12,"look","no crave",140.7099,0.7418,0.738,5
"CHIVES1017","2",13,"look","neutral",152.7739,1.2377,1.234,4
"CHIVES1017","2",14,"look","no crave",164.7583,0.966,0.962,3
"CHIVES1017","2",15,"look","crave",176.764,0.8884,0.885,4
"CHIVES1017","2",16,"regulate","crave",188.8587,1.1133,1.11,4
"CHIVES1017","2",17,"look","no crave",200.8429,0.8415,0.838,4
"CHIVES1017","2",18,"look","no crave",212.7808,1.9672,1.963,4
"CHIVES1017","2",19,"regulate","crave",224.861,2.0153,2.012,4
"CHIVES1017","2",20,"look","crave",236.869,0.663,0.659,5
"CHIVES1017","2",21,"look","neutral",249.1793,1.9203,1.917,2
"CHIVES1017","2",22,"look","neutral",262.2959,0.6516,0.648,1
"CHIVES1017","2",23,"look","crave",274.3779,0.6741,0.67,5
"CHIVES1017","2",24,"look","crave",286.325,0.9351,0.931,5
"CHIVES1017","2",25,"look","neutral",298.428,0.9922,0.989,2
"CHIVES1017","2",26,"look","neutral",310.2433,1.3444,1.341,2
"CHIVES1017","2",27,"regulate","crave",322.6472,1.101,1.097,3
"CHIVES1017","2",28,"regulate","crave",334.9586,2.677,2.673,3
"CHIVES1017","2",29,"look","no crave",347.3435,2.1164,2.113,3
"CHIVES1017","2",30,"look","no crave",359.2817,1.2423,1.239,4
"CHIVES1017","2",31,"regulate","crave",371.3747,2.8213,2.818,3
"CHIVES1017","2",32,"look","crave",383.2125,2.6794,2.676,2
"CHIVES1017","2",33,"look","no crave",395.1623,2.4651,2.462,3
"CHIVES1017","2",34,"look","neutral",407.1779,0.9218,0.918,1
"CHIVES1017","2",35,"look","crave",418.9581,1.1421,1.138,5
"CHIVES1017","2",36,"regulate","crave",430.8109,1.1287,1.125,4
"CHIVES1017","2",37,"look","crave",442.7964,1.5356,1.532,3
"CHIVES1017","2",38,"look","no crave",454.6091,1.1147,1.111,4
"CHIVES1017","2",39,"look","neutral",466.7126,2.2832,2.28,3
"CHIVES1017","2",40,"regulate","crave",478.6743,1.2899,1.286,4
"CHIVES1018","1",1,"regulate","crave",8.1044,1.6999,1.632,3
"CHIVES1018","1",2,"look","neutral",20.0716,0.6061,0.6,2
"CHIVES1018","1",3,"look","crave",32.4274,0.6411,0.637,4
"CHIVES1018","1",4,"look","crave",44.3711,0.8171,0.813,4
"CHIVES1018","1",5,"look","neutral",56.4286,1.2708,1.267,1
"CHIVES1018","1",6,"look","no crave",68.9864,0.6895,0.686,2
"CHIVES1018","1",7,"look","crave",81.3664,0.9426,0.938,4
"CHIVES1018","1",8,"regulate","crave",93.5203,1.068,1.064,3
"CHIVES1018","1",9,"look","no crave",105.6373,0.9348,0.931,1
"CHIVES1018","1",10,"look","no crave",117.7867,0.6171,0.613,2
"CHIVES1018","1",11,"regulate","crave",129.6058,2.046,2.042,4
"CHIVES1018","1",12,"regulate","crave",141.5876,0.6967,0.693,3
"CHIVES1018","1",13,"look","crave",153.5381,1.5534,1.55,4
"CHIVES1018","1",14,"look","neutral",165.4947,0.3817,0.378,4
"CHIVES1018","1",15,"look","neutral",177.8647,0.4836,0.48,4
"CHIVES1018","1",16,"look","crave",189.7371,0.5312,0.527,5
"CHIVES1018","1",17,"look","no crave",201.7794,0.4882,0.485,1
"CHIVES1018","1",18,"look","neutral",213.6377,0.5107,0.507,4
"CHIVES1018","1",19,"regulate","crave",225.6209,0.5506,0.547,1
"CHIVES1018","1",20,"look","crave",237.7263,1.1579,1.154,5
"CHIVES1018","1",21,"look","no crave",249.6541,0.7665,0.763,1
"CHIVES1018","1",22,"look","neutral",262.312,0.5395,0.536,3
"CHIVES1018","1",23,"look","no crave",274.2916,0.4562,0.453,1
"CHIVES1018","1",24,"look","crave",286.1168,0.8953,0.892,3
"CHIVES1018","1",25,"regulate","crave",298.5078,0.456,0.452,4
"CHIVES1018","1",26,"look","neutral",311.6057,1.1423,1.138,4
"CHIVES1018","1",27,"look","crave",323.6327,0.556,0.552,3
"CHIVES1018","1",28,"look","no crave",335.4463,0.6376,0.634,3
"CHIVES1018","1",29,"look","neutral",347.4747,0.442,0.438,4
"CHIVES1018","1",30,"regulate","crave",359.4189,0.4648,0.461,3
"CHIVES1018","1",31,"look","no crave",371.5123,0.5239,0.52,2
"CHIVES1018","1",32,"look","no crave",383.5413,0.607,0.603,1
"CHIVES1018","1",33,"regulate","crave",395.6276,0.8887,0.885,4
"CHIVES1018","1",34,"regulate","crave",407.7341,0.5664,0.562,3
"CHIVES1018","1",35,"look","crave",419.729,0.4672,0.463,4
"CHIVES1018","1",36,"look","crave",431.5973,0.5586,0.555,4
"CHIVES1018","1",37,"look","neutral",443.6582,0.4661,0.462,4
"CHIVES1018","1",38,"look","neutral",455.5901,0.5026,0.498,4
"CHIVES1018","1",39,"look","no crave",467.5287,0.4993,0.495,1
"CHIVES1018","1",40,"regulate","crave",479.4913,0.4494,0.445,2
"CHIVES1018","2",1,"regulate","crave",7.9369,0.6251,0.559,3
"CHIVES1018","2",2,"look","neutral",19.9332,1.345,1.339,2
"CHIVES1018","2",3,"look","no crave",31.9302,0.8908,0.886,1
"CHIVES1018","2",4,"look","crave",45.0562,0.5401,0.537,3
"CHIVES1018","2",5,"look","crave",56.928,0.5639,0.56,3
"CHIVES1018","2",6,"look","neutral",69.2661,0.5217,0.518,3
"CHIVES1018","2",7,"look","neutral",81.3678,0.5802,0.577,3
"CHIVES1018","2",8,"regulate","crave",93.3501,0.4699,0.466,3
"CHIVES1018","2",9,"regulate","crave",105.2656,0.5386,0.535,3
"CHIVES1018","2",10,"look","no crave",117.2737,0.482,0.479,1
"CHIVES1018","2",11,"look","crave",129.2485,0.6195,0.616,4
"CHIVES1018","2",12,"look","no crave",141.0987,0.6653,0.662,2
"CHIVES1018","2",13,"look","neutral",153.2387,0.6377,0.634,3
"CHIVES1018","2",14,"look","no crave",165.2819,0.5225,0.519,2
"CHIVES1018","2",15,"look","crave",177.287,0.5329,0.529,4
"CHIVES1018","2",16,"regulate","crave",189.42,0.7596,0.756,3
"CHIVES1018","2",17,"look","no crave",201.4263,0.5219,0.519,1
"CHIVES1018","2",18,"look","no crave",213.3559,0.7143,0.709,1
"CHIVES1018","2",19,"regulate","crave",225.4958,0.7562,0.753,3
"CHIVES1018","2",20,"look","crave",237.4643,0.6357,0.632,3
"CHIVES1018","2",21,"look","neutral",249.842,0.6017,0.598,4
"CHIVES1018","2",22,"look","neutral",262.943,0.6129,0.609,3
"CHIVES1018","2",23,"look","crave",275.0485,0.7236,0.72,4
"CHIVES1018","2",24,"look","crave",287.0585,0.6498,0.646,3
"CHIVES1018","2",25,"look","neutral",299.1587,0.5173,0.514,4
"CHIVES1018","2",26,"look","neutral",310.992,0.5083,0.505,4
"CHIVES1018","2",27,"regulate","crave",323.3182,1.7815,1.778,4
"CHIVES1018","2",28,"regulate","crave",335.6819,0.5306,0.527,4
"CHIVES1018","2",29,"look","no crave",348.0456,0.7101,0.706,2
"CHIVES1018","2",30,"look","no crave",359.9902,0.7019,0.698,1
"CHIVES1018","2",31,"regulate","crave",372.179,0.5132,0.509,3
"CHIVES1018","2",32,"look","crave",384.029,0.7591,0.755,4
"CHIVES1018","2",33,"look","no crave",396.0128,0.8951,0.891,1
"CHIVES1018","2",34,"look","neutral",408.0121,0.6155,0.612,4
"CHIVES1018","2",35,"look","crave",419.8179,0.4661,0.462,3
"CHIVES1018","2",36,"regulate","crave",431.7281,1.8597,1.856,3
"CHIVES1018","2",37,"look","crave",443.7035,0.5245,0.521,3
"CHIVES1018","2",38,"look","no crave",455.5414,0.6866,0.683,1
"CHIVES1018","2",39,"look","neutral",467.6785,1.5336,1.53,3
"CHIVES1018","2",40,"regulate","crave",479.6195,0.6004,0.597,4
"CHIVES1019","1",1,"regulate","crave",8.1917,1.4505,1.321,1
"CHIVES1019","1",2,"look","neutral",20.134,1.4315,1.426,3
"CHIVES1019","1",3,"look","crave",32.5021,1.1987,1.194,5
"CHIVES1019","1",4,"look","crave",44.5063,1.61,1.606,4
"CHIVES1019","1",5,"look","neutral",56.4018,1.4661,1.462,3
"CHIVES1019","1",6,"look","no crave",69.0385,1.0138,1.01,2
"CHIVES1019","1",7,"look","crave",81.3844,1.5236,1.52,5
"CHIVES1019","1",8,"regulate","crave",93.5064,1.2735,1.27,3
"CHIVES1019","1",9,"look","no crave",105.6179,0.8417,0.838,2
"CHIVES1019","1",10,"look","no crave",117.7123,1.2358,1.232,1
"CHIVES1019","1",11,"regulate","crave",129.5947,1.0892,1.086,3
"CHIVES1019","1",12,"regulate","crave",141.519,0.9887,0.985,2
"CHIVES1019","1",13,"look","crave",153.5089,0.9274,0.924,4
"CHIVES1019","1",14,"look","neutral",165.4732,0.9946,0.991,4
"CHIVES1019","1",15,"look","neutral",177.8215,3.2147,3.211,3
"CHIVES1019","1",16,"look","crave",189.6868,2.133,2.129,3
"CHIVES1019","1",17,"look","no crave",201.6359,1.1205,1.117,2
"CHIVES1019","1",18,"look","neutral",213.5014,0.9743,0.971,3
"CHIVES1019","1",19,"regulate","crave",225.4993,1.1285,1.125,1
"CHIVES1019","1",20,"look","crave",237.4753,1.8885,1.885,2
"CHIVES1019","1",21,"look","no crave",249.5094,1.2229,1.219,1
"CHIVES1019","1",22,"look","neutral",262.1483,1.0636,1.06,4
"CHIVES1019","1",23,"look","no crave",274.0657,2.6179,2.614,1
"CHIVES1019","1",24,"look","crave",285.942,1.558,1.554,3
"CHIVES1019","1",25,"regulate","crave",298.2891,2.6111,2.608,2
"CHIVES1019","1",26,"look","neutral",311.4078,1.5563,1.553,3
"CHIVES1019","1",27,"look","crave",323.334,1.8536,1.85,2
"CHIVES1019","1",28,"look","no crave",335.3074,1.0322,1.029,1
"CHIVES1019","1",29,"look","neutral",347.2485,0.8433,0.84,4
"CHIVES1019","1",30,"regulate","crave",359.2472,0.8769,0.873,2
"CHIVES1019","1",31,"look","no crave",371.3924,0.9398,0.936,1
"CHIVES1019","1",32,"look","no crave",383.3465,0.953,0.949,1
"CHIVES1019","1",33,"regulate","crave",395.4814,1.0442,1.039,3
"CHIVES1019","1",34,"regulate","crave",407.571,1.0568,1.053,3
"CHIVES1019","1",35,"look","crave",419.6162,1.7879,1.784,2
"CHIVES1019","1",36,"look","crave",431.4688,0.9998,0.996,4
"CHIVES1019","1",37,"look","neutral",443.4716,0.9247,0.921,3
"CHIVES1019","1",38,"look","neutral",455.4744,1.1058,1.102,4
"CHIVES1019","1",39,"look","no crave",467.3988,1.0855,1.082,1
"CHIVES1019","1",40,"regulate","crave",479.3801,1.1919,1.188,2
"CHIVES1019","2",1,"regulate","crave",7.9378,0.9907,0.91,2
"CHIVES1019","2",2,"look","neutral",19.9007,1.2894,1.284,4
"CHIVES1019","2",3,"look","no crave",31.9161,0.9204,0.916,1
"CHIVES1019","2",4,"look","crave",45.0591,1.4567,1.453,3
"CHIVES1019","2",5,"look","crave",56.9417,0.8537,0.85,4
"CHIVES1019","2",6,"look","neutral",69.2951,1.1004,1.097,1
"CHIVES1019","2",7,"look","neutral",81.3814,1.0949,1.091,5
"CHIVES1019","2",8,"regulate","crave",93.3372,1.4108,1.407,2
"CHIVES1019","2",9,"regulate","crave",105.1724,1.2954,1.292,4
"CHIVES1019","2",10,"look","no crave",117.1874,0.8642,0.861,1
"CHIVES1019","2",11,"look","crave",129.1171,1.2232,1.219,3
"CHIVES1019","2",12,"look","no crave",140.9551,1.3445,1.341,1
"CHIVES1019","2",13,"look","neutral",153.0639,1.0038,1,1
"CHIVES1019","2",14,"look","no crave",165.0547,1.213,1.209,1
"CHIVES1019","2",15,"look","crave",177.0207,1.5829,1.579,4
"CHIVES1019","2",16,"regulate","crave",189.1562,1.6236,1.62,2
"CHIVES1019","2",17,"look","no crave",201.0796,1.1798,1.176,1
"CHIVES1019","2",18,"look","no crave",213.0403,0.7793,0.776,1
"CHIVES1019","2",19,"regulate","crave",225.1781,1.3697,1.366,2
"CHIVES1019","2",20,"look","crave",237.1171,1.3509,1.347,4
"CHIVES1019","2",21,"look","neutral",249.4953,0.9646,0.961,5
"CHIVES1019","2",22,"look","neutral",262.5931,1.7067,1.703,4
"CHIVES1019","2",23,"look","crave",274.775,1.4448,1.441,4
"CHIVES1019","2",24,"look","crave",286.7554,1.7926,1.789,4
"CHIVES1019","2",25,"look","neutral",298.9417,0.7659,0.762,5
"CHIVES1019","2",26,"look","neutral",310.7407,1.8548,1.851,4
"CHIVES1019","2",27,"regulate","crave",323.1101,1.1892,1.186,2
"CHIVES1019","2",28,"regulate","crave",335.4929,1.399,1.396,1
"CHIVES1019","2",29,"look","no crave",347.8251,1.0981,1.095,1
"CHIVES1019","2",30,"look","no crave",359.8332,1.0741,1.071,1
"CHIVES1019","2",31,"regulate","crave",371.9656,1.0138,1.01,2
"CHIVES1019","2",32,"look","crave",383.7928,1.3707,1.367,3
"CHIVES1019","2",33,"look","no crave",395.8072,0.9881,0.985,1
"CHIVES1019","2",34,"look","neutral",407.7657,1.2303,1.227,4
"CHIVES1019","2",35,"look","crave",419.6184,0.7857,0.782,5
"CHIVES1019","2",36,"regulate","crave",431.4765,2.1029,2.1,2
"CHIVES1019","2",37,"look","crave",443.5038,0.8042,0.801,5
"CHIVES1019","2",38,"look","no crave",455.3514,0.8201,0.817,1
"CHIVES1019","2",39,"look","neutral",467.467,1.0652,1.062,4
"CHIVES1019","2",40,"regulate","crave",479.4776,1.2865,1.283,2
"CHIVES1020","1",1,"regulate","crave",8.1835,2.1433,2.025,3
"CHIVES1020","1",2,"look","neutral",20.1652,2.313,2.308,4
"CHIVES1020","1",3,"look","crave",32.5784,1.13,1.126,2
"CHIVES1020","1",4,"look","crave",44.5367,1.747,1.743,2
"CHIVES1020","1",5,"look","neutral",56.5617,1.6024,1.599,2
"CHIVES1020","1",6,"look","no crave",69.1473,1.3845,1.381,3
"CHIVES1020","1",7,"look","crave",81.4848,0.9588,0.955,4
"CHIVES1020","1",8,"regulate","crave",93.6321,1.476,1.472,3
"CHIVES1020","1",9,"look","no crave",105.7284,1.2849,1.28,1
"CHIVES1020","1",10,"look","no crave",117.8358,0.9124,0.909,2
"CHIVES1020","1",11,"regulate","crave",129.7111,1.3168,1.313,2
"CHIVES1020","1",12,"regulate","crave",141.7325,1.1512,1.148,1
"CHIVES1020","1",13,"look","crave",153.6581,0.8577,0.854,2
"CHIVES1020","1",14,"look","neutral",165.6676,1.2722,1.269,4
"CHIVES1020","1",15,"look","neutral",178.0829,0.4895,0.486,5
"CHIVES1020","1",16,"look","crave",189.9009,0.6308,0.627,1
"CHIVES1020","1",17,"look","no crave",201.9627,0.6092,0.606,2
"CHIVES1020","1",18,"look","neutral",213.7912,0.5889,0.585,5
"CHIVES1020","1",19,"regulate","crave",225.8011,1.0748,1.071,1
"CHIVES1020","1",20,"look","crave",237.8004,0.6755,0.672,4
"CHIVES1020","1",21,"look","no crave",249.8182,0.6419,0.638,4
"CHIVES1020","1",22,"look","neutral",262.4776,0.782,0.778,1
"CHIVES1020","1",23,"look","no crave",274.3952,0.897,0.893,1
"CHIVES1020","1",24,"look","crave",286.2779,0.8062,0.803,1
"CHIVES1020","1",25,"regulate","crave",298.6114,1.1367,1.133,3
"CHIVES1020","1",26,"look","neutral",311.7471,0.8088,0.805,5
"CHIVES1020","1",27,"look","crave",323.7821,0.6535,0.65,3
"CHIVES1020","1",28,"look","no crave",335.6467,0.8455,0.842,2
"CHIVES1020","1",29,"look","neutral",347.6134,0.7666,0.763,5
"CHIVES1020","1",30,"regulate","crave",359.5785,1.3615,1.358,3
"CHIVES1020","1",31,"look","no crave",371.7108,0.6776,0.674,4
"CHIVES1020","1",32,"look","no crave",383.7489,0.7034,0.7,2
"CHIVES1020","1",33,"regulate","crave",395.8077,1.4684,1.465,1
"CHIVES1020","1",34,"regulate","crave",407.9799,1.1601,1.156,3
"CHIVES1020","1",35,"look","crave",419.9503,1.1254,1.122,2
"CHIVES1020","1",36,"look","crave",431.8646,0.5233,0.52,3
"CHIVES1020","1",37,"look","neutral",443.8651,0.7314,0.728,3
"CHIVES1020","1",38,"look","neutral",455.836,0.4802,0.476,5
"CHIVES1020","1",39,"look","no crave",467.9012,0.5746,0.571,3
"CHIVES1020","1",40,"regulate","crave",479.9141,1.3295,1.326,2
"CHIVES1020","2",1,"regulate","crave",7.9168,1.4103,1.332,2
"CHIVES1020","2",2,"look","neutral",19.8698,0.4477,0.442,2
"CHIVES1020","2",3,"look","no crave",31.828,0.7361,0.732,2
"CHIVES1020","2",4,"look","crave",44.9848,0.587,0.584,3
"CHIVES1020","2",5,"look","crave",56.865,0.6268,0.623,2
"CHIVES1020","2",6,"look","neutral",69.1655,0.6625,0.659,4
"CHIVES1020","2",7,"look","neutral",81.3313,0.7843,0.781,3
"CHIVES1020","2",8,"regulate","crave",93.2475,1.4839,1.48,4
"CHIVES1020","2",9,"regulate","crave",105.1112,0.4605,0.457,2
"CHIVES1020","2",10,"look","no crave",117.0832,1.4009,1.398,1
"CHIVES1020","2",11,"look","crave",129.0281,0.576,0.573,3
"CHIVES1020","2",12,"look","no crave",140.9511,0.5962,0.593,2
"CHIVES1020","2",13,"look","neutral",153.0513,0.7602,0.757,4
"CHIVES1020","2",14,"look","no crave",165.0176,0.6737,0.67,1
"CHIVES1020","2",15,"look","crave",176.9975,0.7347,0.731,4
"CHIVES1020","2",16,"regulate","crave",189.0961,1.2355,1.232,1
"CHIVES1020","2",17,"look","no crave",201.2209,0.9103,0.907,2
"CHIVES1020","2",18,"look","no crave",213.1784,0.4815,0.478,3
"CHIVES1020","2",19,"regulate","crave",225.3336,1.7743,1.771,3
"CHIVES1020","2",20,"look","crave",237.2651,0.5473,0.543,4
"CHIVES1020","2",21,"look","neutral",249.6343,0.6014,0.598,3
"CHIVES1020","2",22,"look","neutral",262.6987,0.881,0.877,3
"CHIVES1020","2",23,"look","crave",274.7825,0.661,0.657,3
"CHIVES1020","2",24,"look","crave",286.8141,0.734,0.73,4
"CHIVES1020","2",25,"look","neutral",298.8666,0.5528,0.549,5
"CHIVES1020","2",26,"look","neutral",310.7366,0.6034,0.6,4
"CHIVES1020","2",27,"regulate","crave",323.1676,0.6118,0.608,1
"CHIVES1020","2",28,"regulate","crave",335.4815,1.3306,1.327,1
"CHIVES1020","2",29,"look","no crave",347.8323,0.5795,0.576,3
"CHIVES1020","2",30,"look","no crave",359.753,0.9551,0.951,3
"CHIVES1020","2",31,"regulate","crave",371.9165,0.743,0.739,3
"CHIVES1020","2",32,"look","crave",383.6957,1.1957,1.192,3
"CHIVES1020","2",33,"look","no crave",395.7313,0.4806,0.477,1
"CHIVES1020","2",34,"look","neutral",407.7846,0.3792,0.376,5
"CHIVES1020","2",35,"look","crave",419.6147,0.4609,0.457,5
"CHIVES1020","2",36,"regulate","crave",431.473,0.7865,0.783,3
"CHIVES1020","2",37,"look","crave",443.498,0.5461,0.543,1
"CHIVES1020","2",38,"look","no crave",455.4083,1.1874,1.184,3
"CHIVES1020","2",39,"look","neutral",467.5663,0.7333,0.73,3
"CHIVES1020","2",40,"regulate","crave",479.5866,0.6408,0.637,3
"CHIVES1021","1",1,"regulate","crave",8.2103,2.4925,2.31,5
"CHIVES1021","1",2,"look","neutral",20.1351,1.6792,1.673,4
"CHIVES1021","1",3,"look","crave",32.5829,1.5662,1.562,4
"CHIVES1021","1",4,"look","crave",44.5126,2.7155,2.712,4
"CHIVES1021","1",5,"look","neutral",56.4697,1.8061,1.802,1
"CHIVES1021","1",6,"look","no crave",69.0477,1.6124,1.609,2
"CHIVES1021","1",7,"look","crave",81.4201,0.8876,0.884,5
"CHIVES1021","1",8,"regulate","crave",93.52,2.3957,2.392,3
"CHIVES1021","1",9,"look","no crave",105.6153,1.3564,1.353,3
"CHIVES1021","1",10,"look","no crave",117.706,1.5782,1.574,5
"CHIVES1021","1",11,"regulate","crave",129.515,1.0973,1.093,3
"CHIVES1021","1",12,"regulate","crave",141.5048,3.8508,3.847,2
"CHIVES1021","1",13,"look","crave",153.4657,3.3385,3.335,4
"CHIVES1021","1",14,"look","neutral",165.4496,1.4025,1.399,3
"CHIVES1021","1",15,"look","neutral",177.8512,2.6012,2.597,5
"CHIVES1021","1",16,"look","crave",189.6567,0.603,0.599,5
"CHIVES1021","1",17,"look","no crave",201.6536,2.5504,2.547,2
"CHIVES1021","1",18,"look","neutral",213.4476,0.9807,0.977,5
"CHIVES1021","1",19,"regulate","crave",225.4548,1.9251,1.921,3
"CHIVES1021","1",20,"look","crave",237.488,1.124,1.12,5
"CHIVES1021","1",21,"look","no crave",249.4386,1.7494,1.746,2
"CHIVES1021","1",22,"look","neutral",262.0324,0.9721,0.968,5
"CHIVES1021","1",23,"look","no crave",273.9827,2.3251,2.321,2
"CHIVES1021","1",24,"look","crave",285.8204,0.928,0.924,5
"CHIVES1021","1",25,"regulate","crave",298.1998,1.2365,1.233,3
"CHIVES1021","1",26,"look","neutral",311.3217,0.8584,0.855,5
"CHIVES1021","1",27,"look","crave",323.3686,1.9397,1.936,4
"CHIVES1021","1",28,"look","no crave",335.2548,1.1728,1.169,3
"CHIVES1021","1",29,"look","neutral",347.2334,2.0425,2.039,4
"CHIVES1021","1",30,"regulate","crave",359.2584,1.9379,1.934,2
"CHIVES1021","1",31,"look","no crave",371.337,1.4835,1.48,2
"CHIVES1021","1",32,"look","no crave",383.3586,1.717,1.713,2
"CHIVES1021","1",33,"regulate","crave",395.7004,1.3432,1.34,3
"CHIVES1021","1",34,"regulate","crave",407.8174,1.9382,1.934,2
"CHIVES1021","1",35,"look","crave",419.7715,1.1203,1.116,5
"CHIVES1021","1",36,"look","crave",431.633,0.5714,0.568,5
"CHIVES1021","1",37,"look","neutral",443.6236,1.2202,1.216,2
"CHIVES1021","1",38,"look","neutral",455.5329,1.6475,1.644,4
"CHIVES1021","1",39,"look","no crave",467.5004,1.1435,1.14,1
"CHIVES1021","1",40,"regulate","crave",479.4672,0.9047,0.901,3
"CHIVES1021","2",1,"regulate","crave",7.8662,3.2994,3.214,5
"CHIVES1021","2",2,"look","neutral",19.919,4.0001,0,NA
"CHIVES1021","2",3,"look","no crave",31.9043,1.4859,1.48,3
"CHIVES1021","2",4,"look","crave",45.0053,1.8707,1.867,4
"CHIVES1021","2",5,"look","crave",56.8994,1.4161,1.413,3
"CHIVES1021","2",6,"look","neutral",69.2022,0.8894,0.886,5
"CHIVES1021","2",7,"look","neutral",81.3314,1.7205,1.717,3
"CHIVES1021","2",8,"regulate","crave",93.2844,3.0313,3.028,3
"CHIVES1021","2",9,"regulate","crave",105.1323,1.5833,1.58,3
"CHIVES1021","2",10,"look","no crave",117.107,1.457,1.454,1
"CHIVES1021","2",11,"look","crave",129.0338,1.3305,1.327,5
"CHIVES1021","2",12,"look","no crave",140.9182,1.4056,1.402,3
"CHIVES1021","2",13,"look","neutral",152.9881,1.2,1.196,4
"CHIVES1021","2",14,"look","no crave",164.998,1.4777,1.474,4
"CHIVES1021","2",15,"look","crave",177.0225,1.1016,1.098,3
"CHIVES1021","2",16,"regulate","crave",189.0683,1.4475,1.444,3
"CHIVES1021","2",17,"look","no crave",201.0865,2.4937,2.49,2
"CHIVES1021","2",18,"look","no crave",213.0705,1.6611,1.658,1
"CHIVES1021","2",19,"regulate","crave",225.2042,1.1592,1.156,3
"CHIVES1021","2",20,"look","crave",237.2024,1.8579,1.854,4
"CHIVES1021","2",21,"look","neutral",249.5329,1.2632,1.26,2
"CHIVES1021","2",22,"look","neutral",262.6534,0.6621,0.658,4
"CHIVES1021","2",23,"look","crave",274.7159,0.7205,0.717,5
"CHIVES1021","2",24,"look","crave",286.7176,1.6946,1.691,4
"CHIVES1021","2",25,"look","neutral",298.8041,0.7598,0.756,5
"CHIVES1021","2",26,"look","neutral",310.6569,1.5152,1.511,4
"CHIVES1021","2",27,"regulate","crave",323.0184,3.5058,3.502,3
"CHIVES1021","2",28,"regulate","crave",335.407,1.5726,1.569,3
"CHIVES1021","2",29,"look","no crave",347.804,0.8558,0.852,1
"CHIVES1021","2",30,"look","no crave",359.7358,2.0045,2.001,4
"CHIVES1021","2",31,"regulate","crave",371.9034,0.7969,0.793,3
"CHIVES1021","2",32,"look","crave",383.7382,1.2981,1.294,5
"CHIVES1021","2",33,"look","no crave",395.7369,1.611,1.608,2
"CHIVES1021","2",34,"look","neutral",407.7376,1.2987,1.295,5
"CHIVES1021","2",35,"look","crave",419.5504,0.9578,0.954,5
"CHIVES1021","2",36,"regulate","crave",431.4031,0.8654,0.861,3
"CHIVES1021","2",37,"look","crave",443.4044,1.1676,1.164,5
"CHIVES1021","2",38,"look","no crave",455.2882,1.9552,1.952,3
"CHIVES1021","2",39,"look","neutral",467.3885,2.7035,2.7,2
"CHIVES1021","2",40,"regulate","crave",479.3698,2.6579,2.654,3
"CHIVES1022","1",1,"regulate","crave",8.1306,2.7045,2.638,1
"CHIVES1022","1",2,"look","neutral",20.1558,1.3058,1.3,2
"CHIVES1022","1",3,"look","crave",32.5239,0.9768,0.972,5
"CHIVES1022","1",4,"look","crave",44.5107,1.1251,1.121,3
"CHIVES1022","1",5,"look","neutral",56.5288,1.427,1.423,1
"CHIVES1022","1",6,"look","no crave",69.132,1.6556,1.652,3
"CHIVES1022","1",7,"look","crave",81.5293,0.8667,0.863,3
"CHIVES1022","1",8,"regulate","crave",93.6243,1.244,1.24,1
"CHIVES1022","1",9,"look","no crave",105.7982,0.9414,0.938,2
"CHIVES1022","1",10,"look","no crave",117.9662,0.9179,0.914,2
"CHIVES1022","1",11,"regulate","crave",129.7852,1.6751,1.671,1
"CHIVES1022","1",12,"regulate","crave",141.7667,0.8454,0.842,1
"CHIVES1022","1",13,"look","crave",153.6743,1.8495,1.846,3
"CHIVES1022","1",14,"look","neutral",165.7097,2.0298,2.026,3
"CHIVES1022","1",15,"look","neutral",178.0238,1.2918,1.288,3
"CHIVES1022","1",16,"look","crave",189.8561,0.6522,0.648,3
"CHIVES1022","1",17,"look","no crave",201.8273,0.6163,0.613,1
"CHIVES1022","1",18,"look","neutral",213.6066,0.8133,0.81,2
"CHIVES1022","1",19,"regulate","crave",225.5795,2.0643,2.061,1
"CHIVES1022","1",20,"look","crave",237.5576,0.6303,0.627,3
"CHIVES1022","1",21,"look","no crave",249.4951,0.8609,0.857,2
"CHIVES1022","1",22,"look","neutral",262.1976,0.8868,0.883,3
"CHIVES1022","1",23,"look","no crave",274.1454,1.0584,1.055,3
"CHIVES1022","1",24,"look","crave",285.9799,0.8004,0.797,3
"CHIVES1022","1",25,"regulate","crave",298.3308,1.2172,1.214,1
"CHIVES1022","1",26,"look","neutral",311.4257,0.7619,0.758,2
"CHIVES1022","1",27,"look","crave",323.3912,0.9011,0.897,5
"CHIVES1022","1",28,"look","no crave",335.2123,0.7837,0.78,1
"CHIVES1022","1",29,"look","neutral",347.2757,0.6563,0.653,5
"CHIVES1022","1",30,"regulate","crave",359.2812,1.7626,1.759,1
"CHIVES1022","1",31,"look","no crave",371.4125,0.9112,0.907,2
"CHIVES1022","1",32,"look","no crave",383.3847,1.5316,1.528,1
"CHIVES1022","1",33,"regulate","crave",395.4752,1.129,1.125,1
"CHIVES1022","1",34,"regulate","crave",407.5632,0.7849,0.781,1
"CHIVES1022","1",35,"look","crave",419.5263,0.7815,0.778,3
"CHIVES1022","1",36,"look","crave",431.3328,0.8314,0.828,4
"CHIVES1022","1",37,"look","neutral",443.2862,0.6774,0.674,3
"CHIVES1022","1",38,"look","neutral",455.2661,0.8504,0.846,4
"CHIVES1022","1",39,"look","no crave",467.3301,0.802,0.798,1
"CHIVES1022","1",40,"regulate","crave",479.3183,0.7741,0.77,1
"CHIVES1022","2",1,"regulate","crave",7.8691,1.3624,1.243,2
"CHIVES1022","2",2,"look","neutral",19.8199,3.1779,3.173,2
"CHIVES1022","2",3,"look","no crave",31.8207,1.8074,1.804,3
"CHIVES1022","2",4,"look","crave",44.9369,1.0829,1.079,5
"CHIVES1022","2",5,"look","crave",56.8046,1.3115,1.308,5
"CHIVES1022","2",6,"look","neutral",69.1781,1.6501,1.647,3
"CHIVES1022","2",7,"look","neutral",81.2363,1.1835,1.18,3
"CHIVES1022","2",8,"regulate","crave",93.2304,0.8213,0.818,1
"CHIVES1022","2",9,"regulate","crave",105.0566,2.0913,2.088,2
"CHIVES1022","2",10,"look","no crave",117.0404,1.7952,1.792,2
"CHIVES1022","2",11,"look","crave",129.0263,1.762,1.758,4
"CHIVES1022","2",12,"look","no crave",140.8387,1.1728,1.169,2
